SampleIndex,Timestamp,Ax,Ay,Az,Gx,Gy,Gz,RMS,Pitch,Roll,StepCount
1,1768267378,296,-14,7980,102,86,-26,142.42,0.1,-2.11,1
2,1768267378,266,20,7992,103,80,-27,142.42,0.13,-2.09,1
3,1768267378,282,-26,7966,102,81,-28,127.76,0.09,-2.09,1
4,1768267378,268,-26,8020,99,80,-22,127.76,0.06,-2.08,1
5,1768267378,270,36,7964,106,87,-29,127.76,0.12,-2.07,1
6,1768267378,284,-8,7998,99,79,-21,127.76,0.11,-2.08,1
7,1768267378,276,0,7992,98,73,-25,127.76,0.11,-2.08,1
8,1768267378,272,10,7960,103,85,-25,127.76,0.13,-2.07,1
9,1768267378,288,-38,8044,97,85,-24,127.76,0.07,-2.09,1
10,1768267378,282,12,8042,99,79,-23,127.76,0.1,-2.09,1
11,1768267378,250,16,8000,106,85,-26,127.76,0.13,-2.05,1
12,1768267378,262,-20,7998,96,82,-33,127.76,0.09,-2.03,1
13,1768267378,302,36,7988,102,80,-24,127.76,0.15,-2.08,1
14,1768267378,258,0,8018,102,82,-32,127.76,0.14,-2.05,1
15,1768267378,314,-20,8006,96,78,-20,127.76,0.11,-2.11,1
16,1768267378,256,20,7946,107,83,-24,127.76,0.14,-2.07,1
17,1768267378,258,4,8046,102,89,-26,127.76,0.14,-2.05,1
18,1768267378,284,-12,7990,97,83,-24,127.76,0.12,-2.06,1
19,1768267378,266,22,8018,104,81,-30,127.76,0.15,-2.05,1
20,1768267378,264,-8,7986,97,82,-29,127.76,0.13,-2.04,1
21,1768267379,250,-24,8036,96,75,-30,127.76,0.09,-2.0,1
22,1768267379,256,-22,7990,103,86,-31,127.76,0.07,-1.99,1
23,1768267379,308,-22,7950,98,78,-22,127.76,0.05,-2.05,1
24,1768267379,260,-24,8014,101,79,-27,127.76,0.03,-2.03,1
25,1768267379,266,24,7966,104,81,-28,127.76,0.08,-2.03,1
26,1768267379,304,-44,8010,95,83,-24,127.76,0.02,-2.08,1
27,1768267379,250,-18,8044,95,82,-30,127.76,0.02,-2.04,1
28,1768267379,224,6,7992,106,90,-30,141.09,0.05,-1.97,1
29,1768267379,264,-42,7960,95,83,-28,141.09,0.0,-1.98,1
30,1768267379,264,6,7972,100,88,-26,141.09,0.03,-1.98,1
31,1768267379,246,-20,8010,98,84,-26,141.09,0.02,-1.96,1
32,1768267379,294,-20,7996,102,79,-25,141.09,0.01,-2.0,1
33,1768267379,308,2,8008,102,83,-26,141.09,0.04,-2.06,1
34,1768267379,258,12,8006,102,83,-30,141.09,0.07,-2.04,1
35,1768267379,290,-26,7974,101,83,-25,141.09,0.04,-2.07,1
36,1768267379,314,-2,7982,103,83,-29,141.09,0.05,-2.12,1
37,1768267379,260,-30,7980,104,85,-27,141.09,0.03,-2.09,1
38,1768267379,296,-36,7974,100,83,-31,141.09,0.0,-2.12,1
39,1768267379,262,4,7978,104,82,-31,141.09,0.02,-2.09,1
40,1768267379,282,-8,7964,100,85,-30,141.09,0.03,-2.1,1
41,1768267379,308,-28,8016,95,76,-27,141.09,0.01,-2.14,1
42,1768267379,260,28,8016,105,83,-29,141.09,0.07,-2.1,1
43,1768267379,268,-6,8012,102,82,-25,141.09,0.07,-2.08,1
44,1768267379,272,-18,8060,100,78,-22,141.09,0.05,-2.07,1
45,1768267379,234,-2,7938,104,85,-30,141.09,0.07,-2.01,1
46,1768267379,282,-6,8032,94,90,-27,141.09,0.07,-2.03,1
47,1768267379,266,-14,7938,99,78,-28,141.09,0.06,-2.03,1
48,1768267379,250,22,7992,106,87,-30,141.09,0.1,-2.0,1
49,1768267379,256,-12,8038,98,82,-29,141.09,0.09,-1.99,1
50,1768267379,286,-32,8016,100,80,-29,141.09,0.05,-2.02,1
51,1768267379,252,18,7996,104,82,-31,141.09,0.09,-1.99,1
52,1768267379,334,-36,7988,95,82,-30,141.09,0.04,-2.09,1
53,1768267379,296,4,7994,99,80,-26,134.16,0.06,-2.12,1
54,1768267379,276,22,8010,107,85,-25,134.16,0.11,-2.11,1
55,1768267379,264,8,8030,99,80,-30,134.16,0.12,-2.08,1
56,1768267379,302,-18,7966,102,79,-24,134.16,0.09,-2.12,1
57,1768267379,260,10,7968,99,79,-28,134.16,0.11,-2.09,1
58,1768267379,280,-26,7996,95,82,-26,134.16,0.07,-2.09,1
59,1768267379,296,-4,8006,98,79,-21,134.16,0.08,-2.11,1
60,1768267379,254,-28,7992,103,84,-20,134.16,0.05,-2.07,1
61,1768267379,280,-26,8018,99,80,-29,134.16,0.02,-2.08,1
62,1768267379,246,-32,7992,101,84,-23,134.16,0.0,-2.03,1
63,1768267379,302,20,7996,99,84,-27,134.16,0.05,-2.08,1
64,1768267379,296,-16,7984,99,79,-25,134.16,0.04,-2.11,1
65,1768267379,270,4,8010,101,86,-27,134.16,0.06,-2.09,1
66,1768267379,278,-20,8054,101,81,-26,134.16,0.04,-2.09,1
67,1768267379,298,-20,7988,105,77,-22,134.16,0.03,-2.11,1
68,1768267379,252,-26,8010,97,80,-23,134.16,0.01,-2.07,1
69,1768267379,266,-2,7998,95,78,-24,134.16,0.03,-2.06,1
70,1768267379,280,-34,7982,101,82,-31,134.16,0.0,-2.07,1
71,1768267380,234,-16,8034,104,79,-30,134.16,0.0,-2.0,1
72,1768267380,272,46,7948,102,84,-26,134.16,0.09,-2.01,1
73,1768267380,282,-70,8002,102,84,-26,134.16,0.0,-2.04,1
74,1768267380,274,-24,7984,98,81,-28,134.16,-0.01,-2.04,1
75,1768267380,314,48,7980,101,81,-31,134.16,0.08,-2.1,1
76,1768267380,292,-22,7948,99,80,-30,134.16,0.06,-2.12,1
77,1768267380,242,10,8044,103,74,-31,134.16,0.08,-2.06,1
78,1768267380,252,18,7986,104,82,-28,137.54,0.12,-2.03,1
79,1768267380,290,-26,7972,100,81,-24,137.54,0.08,-2.06,1
80,1768267380,290,-4,7976,96,76,-27,137.54,0.08,-2.08,1
81,1768267380,236,16,7972,104,84,-28,137.54,0.11,-2.02,1
82,1768267380,268,-28,7984,101,80,-21,137.54,0.07,-2.02,1
83,1768267380,280,8,7984,96,80,-27,137.54,0.09,-2.04,1
84,1768267380,238,22,7968,100,76,-29,137.54,0.13,-1.99,1
85,1768267380,248,-4,7994,103,82,-32,137.54,0.12,-1.97,1
86,1768267380,288,-22,7994,101,76,-29,137.54,0.09,-2.0,1
87,1768267380,270,30,7972,105,87,-25,137.54,0.14,-2.01,1
88,1768267380,262,-24,8048,100,81,-23,137.54,0.1,-2.0,1
89,1768267380,298,-2,8004,100,81,-27,137.54,0.1,-2.05,1
90,1768267380,272,24,7986,97,75,-26,137.54,0.14,-2.04,1
91,1768267380,274,-2,8024,98,79,-25,137.54,0.13,-2.04,1
92,1768267380,286,-36,8010,97,76,-30,137.54,0.08,-2.06,1
93,1768267380,284,-8,8028,96,78,-28,137.54,0.07,-2.07,1
94,1768267380,302,2,7964,103,85,-29,137.54,0.08,-2.11,1
95,1768267380,274,-26,8004,101,79,-31,137.54,0.05,-2.1,1
96,1768267380,236,8,8002,96,81,-28,137.54,0.08,-2.04,1
97,1768267380,272,44,7996,102,79,-25,137.54,0.15,-2.04,1
98,1768267380,304,-22,7998,98,83,-27,137.54,0.11,-2.08,1
99,1768267380,278,-28,8030,94,77,-27,137.54,0.07,-2.08,1
100,1768267380,288,40,7986,104,86,-31,137.54,0.14,-2.1,1
101,1768267380,254,-6,7968,104,87,-29,137.54,0.13,-2.06,1
102,1768267380,302,-30,8032,98,80,-28,137.54,0.08,-2.1,1
103,1768267380,276,-10,7986,103,83,-26,135.76,0.07,-2.1,1
104,1768267380,264,10,7978,103,85,-28,135.76,0.1,-2.08,1
105,1768267380,290,-20,7990,98,80,-24,135.76,0.07,-2.09,1
106,1768267380,252,8,8036,103,82,-30,135.76,0.09,-2.05,1
107,1768267380,266,22,7980,102,82,-26,135.76,0.13,-2.04,1
108,1768267380,296,-48,8006,102,78,-26,135.76,0.06,-2.08,1
109,1768267380,252,0,8026,99,80,-26,135.76,0.07,-2.04,1
110,1768267380,232,12,8020,101,83,-25,135.76,0.1,-1.98,1
111,1768267380,236,0,8012,101,81,-28,135.76,0.1,-1.94,1
112,1768267380,288,-44,7992,96,85,-24,135.76,0.04,-1.99,1
113,1768267380,304,-14,7980,102,81,-26,135.76,0.04,-2.04,1
114,1768267380,288,-8,7996,103,85,-26,135.76,0.04,-2.07,1
115,1768267380,302,-4,7998,93,76,-27,135.76,0.05,-2.1,1
116,1768267380,282,18,8042,99,81,-22,135.76,0.09,-2.1,1
117,1768267380,252,4,8010,102,78,-25,135.76,0.1,-2.06,1
118,1768267380,296,8,8014,100,82,-27,135.76,0.12,-2.09,1
119,1768267380,256,2,7992,97,81,-23,135.76,0.12,-2.06,1
120,1768267380,250,-14,8000,99,83,-27,135.76,0.1,-2.02,1
121,1768267381,258,-10,8022,104,79,-27,135.76,0.09,-2.01,1
122,1768267381,252,-54,8044,99,79,-29,135.76,0.02,-1.98,1
123,1768267381,278,16,8028,103,78,-23,135.76,0.06,-2.0,1
124,1768267381,320,30,7978,105,83,-26,135.76,0.12,-2.08,1
125,1768267381,306,-48,7994,101,82,-26,135.76,0.05,-2.12,1
126,1768267381,222,-6,8000,98,81,-29,135.76,0.05,-2.03,1
127,1768267381,258,-14,7946,104,85,-25,135.76,0.05,-2.02,1
128,1768267381,272,-38,8040,97,82,-28,145.33,0.01,-2.02,1
129,1768267381,318,-12,7946,98,82,-27,145.33,0.01,-2.09,1
130,1768267381,262,24,8012,101,80,-23,145.33,0.07,-2.07,1
131,1768267381,282,-14,8026,98,79,-25,145.33,0.06,-2.08,1
132,1768267381,278,8,7982,101,81,-28,145.33,0.08,-2.08,1
133,1768267381,262,12,8008,99,81,-27,145.33,0.1,-2.06,1
134,1768267381,260,30,7930,104,83,-31,145.33,0.15,-2.04,1
135,1768267381,292,-10,8014,100,86,-25,145.33,0.13,-2.07,1
136,1768267381,284,-32,7998,98,84,-21,145.33,0.08,-2.08,1
137,1768267381,254,-8,8020,105,82,-26,145.33,0.08,-2.05,1
138,1768267381,256,14,8000,99,81,-25,145.33,0.11,-2.02,1
139,1768267381,254,-30,7992,98,81,-27,145.33,0.06,-2.0,1
140,1768267381,242,-10,7970,98,76,-26,145.33,0.06,-1.97,1
141,1768267381,250,-4,7970,100,81,-29,145.33,0.07,-1.95,1
142,1768267381,274,2,7952,102,80,-31,145.33,0.08,-1.97,1
143,1768267381,288,-8,7972,95,80,-27,145.33,0.07,-2.01,1
144,1768267381,300,14,8008,100,81,-22,145.33,0.1,-2.06,1
145,1768267381,274,22,7954,105,82,-27,145.33,0.14,-2.06,1
146,1768267381,286,-18,7962,98,81,-25,145.33,0.11,-2.08,1
147,1768267381,264,-20,8006,101,82,-26,145.33,0.08,-2.06,1
148,1768267381,278,28,7986,103,80,-23,145.33,0.13,-2.06,1
149,1768267381,262,-26,7978,99,81,-30,145.33,0.09,-2.05,1
150,1768267381,284,-26,7978,98,70,-25,145.33,0.06,-2.06,1
151,1768267381,294,0,7936,96,77,-29,145.33,0.07,-2.09,1
152,1768267381,250,6,7984,101,84,-27,145.33,0.09,-2.05,1
153,1768267381,328,-34,7974,102,79,-28,122.82,0.04,-2.13,1
154,1768267381,288,-26,7970,100,77,-23,122.82,0.02,-2.14,1
155,1768267381,244,-26,8044,103,84,-23,122.82,0.0,-2.08,1
156,1768267381,226,10,8024,102,84,-29,122.82,0.04,-2.0,1
157,1768267381,292,-28,7974,99,76,-25,122.82,0.02,-2.04,1
158,1768267381,318,-40,8006,103,78,-23,122.82,-0.01,-2.1,1
159,1768267381,300,14,8016,101,79,-24,122.82,0.03,-2.13,1
160,1768267381,242,4,8020,103,80,-26,122.82,0.05,-2.07,1
161,1768267381,290,-16,7978,99,87,-23,122.82,0.04,-2.09,1
162,1768267381,302,-10,7996,95,78,-20,122.82,0.04,-2.12,1
163,1768267381,294,12,8000,99,82,-33,122.82,0.07,-2.14,1
164,1768267381,230,-8,7946,103,81,-31,122.82,0.07,-2.06,1
165,1768267381,260,4,7984,99,83,-30,122.82,0.09,-2.04,1
166,1768267381,304,14,7996,101,80,-26,122.82,0.11,-2.09,1
167,1768267381,240,0,7986,102,79,-23,122.82,0.11,-2.03,1
168,1768267381,314,-72,7914,97,81,-22,122.82,0.01,-2.1,1
169,1768267381,276,-28,8042,100,82,-32,122.82,0.0,-2.09,1
170,1768267381,256,0,8002,103,80,-26,122.82,0.02,-2.06,1
171,1768267382,302,-2,7996,94,88,-27,122.82,0.03,-2.1,1
172,1768267382,294,-32,7996,100,77,-25,122.82,0.0,-2.12,1
173,1768267382,338,-2,7986,103,78,-26,122.82,0.02,-2.2,1
174,1768267382,264,-14,7950,103,82,-24,122.82,0.02,-2.16,1
175,1768267382,268,-24,7998,103,77,-29,122.82,0.01,-2.13,1
176,1768267382,266,-32,7966,100,84,-27,122.82,-0.01,-2.1,1
177,1768267382,300,-28,7958,101,84,-30,122.82,-0.02,-2.13,1
178,1768267382,280,24,7964,96,77,-26,129.19,0.03,-2.13,1
179,1768267382,260,-2,7954,97,80,-24,129.19,0.05,-2.1,1
180,1768267382,304,-16,7974,101,72,-31,129.19,0.04,-2.13,1
181,1768267382,298,-32,8038,95,84,-28,129.19,0.01,-2.15,1
182,1768267382,262,34,8020,99,84,-26,129.19,0.08,-2.11,1
183,1768267382,284,12,7964,99,82,-22,129.19,0.1,-2.12,1
184,1768267382,300,-40,8022,95,79,-25,129.19,0.05,-2.14,1
185,1768267382,266,-20,8016,104,80,-21,129.19,0.03,-2.11,1
186,1768267382,300,26,7982,108,86,-25,129.19,0.09,-2.14,1
187,1768267382,310,0,7988,102,92,-23,129.19,0.1,-2.18,1
188,1768267382,310,-26,8010,96,76,-27,129.19,0.06,-2.2,1
189,1768267382,278,30,8030,103,79,-23,129.19,0.12,-2.18,1
190,1768267382,244,6,7994,106,78,-26,129.19,0.13,-2.11,1
191,1768267382,290,16,7984,100,81,-26,129.19,0.15,-2.12,1
192,1768267382,288,22,8006,99,79,-24,129.19,0.17,-2.13,1
193,1768267382,288,-28,8020,96,85,-31,129.19,0.12,-2.13,1
194,1768267382,268,14,7994,99,79,-27,129.19,0.14,-2.11,1
195,1768267382,294,-18,7956,100,77,-30,129.19,0.11,-2.13,1
196,1768267382,278,-8,8024,97,80,-22,129.19,0.1,-2.12,1
197,1768267382,244,10,7994,99,78,-22,129.19,0.12,-2.06,1
198,1768267382,282,10,8018,101,83,-26,129.19,0.13,-2.07,1
199,1768267382,288,-6,8014,101,85,-28,129.19,0.12,-2.09,1
200,1768267382,284,4,7944,98,82,-23,129.19,0.12,-2.1,1
201,1768267382,262,-32,8034,101,81,-26,129.19,0.08,-2.07,1
202,1768267382,262,2,8010,97,75,-24,129.19,0.09,-2.05,1
203,1768267382,262,0,7968,102,86,-23,138.99,0.09,-2.04,1
204,1768267382,290,-32,7986,100,79,-27,138.99,0.05,-2.06,1
205,1768267382,254,-22,7990,102,82,-20,138.99,0.03,-2.03,1
206,1768267382,276,48,8004,100,84,-28,138.99,0.12,-2.04,1
207,1768267382,314,-10,7974,107,85,-26,138.99,0.11,-2.1,1
208,1768267382,306,-20,8026,96,78,-28,138.99,0.08,-2.14,1
209,1768267382,290,-54,8018,102,78,-23,138.99,0.01,-2.14,1
210,1768267382,244,30,7990,106,82,-22,138.99,0.08,-2.08,1
211,1768267382,268,6,7984,93,81,-25,138.99,0.09,-2.07,1
212,1768267382,304,-28,8016,93,78,-28,138.99,0.05,-2.11,1
213,1768267382,268,0,8012,100,82,-27,138.99,0.07,-2.09,1
214,1768267382,250,12,7946,105,80,-31,138.99,0.1,-2.05,1
215,1768267382,290,-10,7988,101,80,-21,138.99,0.09,-2.07,1
216,1768267382,292,-52,8006,98,80,-28,138.99,0.02,-2.1,1
217,1768267382,266,48,8052,101,79,-26,138.99,0.11,-2.07,1
218,1768267382,262,-18,7998,101,79,-21,138.99,0.08,-2.05,1
219,1768267382,308,-20,7968,101,79,-28,138.99,0.06,-2.1,1
220,1768267382,260,-36,7972,98,81,-28,138.99,0.02,-2.07,1
221,1768267383,290,4,8014,97,81,-31,138.99,0.04,-2.09,1
222,1768267383,294,10,7980,100,83,-29,138.99,0.07,-2.12,1
223,1768267383,278,20,7948,102,76,-26,138.99,0.11,-2.11,1
224,1768267383,258,-22,8022,103,80,-28,138.99,0.08,-2.08,1
225,1768267383,268,-18,7980,100,80,-23,138.99,0.06,-2.06,1
226,1768267383,274,-8,7996,103,84,-23,138.99,0.06,-2.06,1
227,1768267383,286,26,8020,100,83,-25,138.99,0.11,-2.08,1
228,1768267383,298,-36,7928,100,83,-27,133.4,0.06,-2.11,1
229,1768267383,350,0,8026,101,76,-27,133.4,0.07,-2.21,1
230,1768267383,252,-24,7926,103,78,-22,133.4,0.05,-2.15,1
231,1768267383,242,24,8034,100,77,-25,133.4,0.1,-2.08,1
232,1768267383,292,-2,7936,101,78,-31,133.4,0.1,-2.1,1
233,1768267383,258,-30,8066,93,78,-29,133.4,0.06,-2.07,1
234,1768267383,296,-6,8016,101,80,-25,133.4,0.06,-2.1,1
235,1768267383,236,44,8008,101,83,-27,133.4,0.13,-2.03,1
236,1768267383,248,-8,7994,99,85,-28,133.4,0.12,-2.0,1
237,1768267383,294,-52,8030,97,84,-26,133.4,0.04,-2.04,1
238,1768267383,238,38,8056,101,84,-26,133.4,0.11,-1.99,1
239,1768267383,262,-4,7978,103,83,-25,133.4,0.11,-1.99,1
240,1768267383,288,-4,7980,96,80,-24,133.4,0.1,-2.02,1
241,1768267383,302,-8,7994,95,83,-21,133.4,0.09,-2.07,1
242,1768267383,258,22,8002,102,83,-25,133.4,0.13,-2.04,1
243,1768267383,266,10,7940,102,82,-27,133.4,0.14,-2.04,1
244,1768267383,300,-72,7960,101,81,-31,133.4,0.03,-2.08,1
245,1768267383,292,-46,7976,100,77,-24,133.4,-0.01,-2.1,1
246,1768267383,292,2,8034,104,78,-26,133.4,0.02,-2.12,1
247,1768267383,264,-4,7942,104,78,-18,133.4,0.03,-2.09,1
248,1768267383,262,-14,7960,99,87,-29,133.4,0.03,-2.07,1
249,1768267383,298,-24,7966,96,81,-26,133.4,0.01,-2.1,1
250,1768267383,264,28,8040,102,78,-29,133.4,0.07,-2.08,1
251,1768267383,254,6,7996,99,84,-28,133.4,0.09,-2.05,1
252,1768267383,298,-44,7976,99,80,-22,133.4,0.03,-2.08,1
253,1768267383,296,-8,8044,97,80,-27,135.83,0.04,-2.11,1
254,1768267383,280,-38,7996,105,77,-27,135.83,0.0,-2.1,1
255,1768267383,268,32,7990,104,84,-26,135.83,0.07,-2.09,1
256,1768267383,270,-14,7972,103,84,-23,135.83,0.06,-2.08,1
257,1768267383,296,-24,8002,96,86,-29,135.83,0.04,-2.11,1
258,1768267383,270,-14,8012,96,83,-29,135.83,0.03,-2.09,1
259,1768267383,264,20,8000,101,89,-27,135.83,0.08,-2.07,1
260,1768267383,274,-6,7926,98,86,-26,135.83,0.08,-2.07,1
261,1768267383,318,-16,8004,102,84,-26,135.83,0.06,-2.13,1
262,1768267383,304,-26,7970,99,78,-20,135.83,0.04,-2.16,1
263,1768267383,292,6,7982,103,80,-29,135.83,0.06,-2.17,1
264,1768267383,294,-24,7962,101,82,-30,135.83,0.04,-2.17,1
265,1768267383,258,-12,7954,100,77,-24,135.83,0.04,-2.13,1
266,1768267383,260,0,8010,99,87,-25,135.83,0.05,-2.1,1
267,1768267383,260,-12,7994,97,81,-31,135.83,0.05,-2.07,1
268,1768267383,280,-12,7958,103,82,-30,135.83,0.04,-2.08,1
269,1768267383,276,-28,7952,99,80,-28,135.83,0.02,-2.08,1
270,1768267383,282,14,7958,98,82,-27,135.83,0.06,-2.09,1
271,1768267384,230,10,8010,97,78,-30,135.83,0.08,-2.02,1
272,1768267384,266,-18,7972,99,78,-27,135.83,0.06,-2.01,1
273,1768267384,306,-20,7986,98,83,-30,135.83,0.05,-2.07,1
274,1768267384,276,-4,7964,97,79,-27,135.83,0.05,-2.07,1
275,1768267384,286,-8,7970,102,80,-25,135.83,0.06,-2.09,1
276,1768267384,290,16,7982,103,83,-25,135.83,0.09,-2.1,1
277,1768267384,286,-18,7994,96,83,-29,135.83,0.07,-2.11,1
278,1768267384,290,-26,8016,102,79,-30,122.07,0.04,-2.12,1
279,1768267384,262,-36,8020,97,82,-24,122.07,0.01,-2.09,1
281,1768267384,234,-10,7954,98,80,-29,122.07,0.01,-2.03,1
281,1768267384,288,8,7938,102,76,-20,122.07,0.05,-2.06,1
282,1768267384,310,-18,7994,99,76,-22,122.07,0.03,-2.11,1
283,1768267384,274,-4,8004,102,77,-26,122.07,0.05,-2.1,1
284,1768267384,256,10,7988,103,80,-30,122.07,0.07,-2.06,1
285,1768267384,254,-22,7942,104,78,-19,122.07,0.05,-2.03,1
286,1768267384,264,-26,7988,99,81,-29,122.07,0.03,-2.02,1
287,1768267384,292,-26,7992,101,84,-29,122.07,0.01,-2.06,1
288,1768267384,280,10,7972,99,83,-29,122.07,0.04,-2.07,1
289,1768267384,260,-16,7956,98,82,-22,122.07,0.04,-2.05,1
290,1768267384,256,-18,7978,95,80,-25,122.07,0.02,-2.02,1
291,1768267384,286,-10,7974,102,76,-23,122.07,0.03,-2.05,1
292,1768267384,264,18,8010,101,83,-28,122.07,0.07,-2.03,1
293,1768267384,276,-44,7980,98,79,-25,122.07,0.02,-2.04,1
294,1768267384,280,8,7984,92,78,-27,122.07,0.05,-2.05,1
295,1768267384,260,-6,8072,100,84,-30,122.07,0.05,-2.03,1
296,1768267384,298,10,7996,100,84,-30,122.07,0.08,-2.07,1
297,1768267384,308,-20,7956,102,89,-27,122.07,0.06,-2.12,1
298,1768267384,290,-46,7970,101,78,-23,122.07,0.0,-2.13,1
299,1768267384,280,12,8002,106,80,-26,122.07,0.05,-2.12,1
300,1768267384,318,-2,7970,106,84,-30,122.07,0.06,-2.18,1
301,1768267384,284,2,8018,104,77,-25,122.07,0.07,-2.16,1
302,1768267384,278,-14,8018,102,84,-30,122.07,0.06,-2.15,1
303,1768267384,288,26,7994,95,82,-24,127.4,0.11,-2.15,1
304,1768267384,256,-16,7972,100,85,-30,127.4,0.09,-2.11,1
305,1768267384,274,-16,8034,97,83,-27,127.4,0.07,-2.1,1
306,1768267384,286,-32,8028,101,79,-22,127.4,0.03,-2.1,1
307,1768267384,250,2,7970,102,80,-26,127.4,0.05,-2.06,1
308,1768267384,280,10,8036,101,83,-26,127.4,0.08,-2.07,1
309,1768267384,278,4,7988,96,78,-28,127.4,0.09,-2.07,1
310,1768267384,266,2,7974,98,76,-26,127.4,0.1,-2.06,1
311,1768267384,250,8,7974,99,80,-25,127.4,0.12,-2.02,1
312,1768267384,286,26,8020,101,84,-24,127.4,0.15,-2.05,1
313,1768267384,274,-8,8048,101,81,-27,127.4,0.13,-2.05,1
314,1768267384,274,-14,8006,102,89,-28,127.4,0.11,-2.05,1
315,1768267384,244,-26,7966,101,84,-23,127.4,0.08,-2.01,1
316,1768267384,302,-36,7964,98,77,-28,127.4,0.03,-2.06,1
317,1768267384,290,2,7994,99,79,-30,127.4,0.05,-2.08,1
318,1768267384,246,12,7968,104,75,-25,127.4,0.08,-2.04,1
319,1768267384,284,-6,8056,99,85,-27,127.4,0.08,-2.05,1
320,1768267384,262,-24,8068,97,81,-21,127.4,0.05,-2.03,1
321,1768267385,304,-6,7996,104,81,-27,127.4,0.06,-2.08,1
322,1768267385,262,-4,7970,98,85,-27,127.4,0.06,-2.06,1
323,1768267385,274,-18,7914,97,84,-25,127.4,0.05,-2.06,1
324,1768267385,278,-50,8022,99,76,-31,127.4,0.0,-2.07,1
325,1768267385,246,8,8018,105,83,-26,127.4,0.03,-2.02,1
326,1768267385,274,32,7980,102,82,-24,127.4,0.09,-2.03,1
327,1768267385,272,-32,7908,93,81,-22,127.4,0.05,-2.04,1
328,1768267385,280,-24,8004,98,81,-27,135.55,0.03,-2.05,1
329,1768267385,264,2,7990,104,87,-25,135.55,0.05,-2.04,1
330,1768267385,292,-20,7970,102,86,-24,135.55,0.03,-2.07,1
331,1768267385,306,-26,7988,99,80,-26,135.55,0.01,-2.11,1
332,1768267385,306,-44,7994,100,77,-23,135.55,-0.02,-2.15,1
333,1768267385,240,4,7940,102,83,-26,135.55,0.01,-2.08,1
334,1768267385,246,-34,7984,102,84,-26,135.55,-0.01,-2.04,1
335,1768267385,276,-8,7986,94,86,-26,135.55,0.0,-2.05,1
336,1768267385,264,10,8044,103,84,-24,135.55,0.03,-2.03,1
337,1768267385,226,50,8010,108,82,-27,135.55,0.12,-1.97,1
338,1768267385,274,-40,7976,100,84,-25,135.55,0.07,-1.99,1
339,1768267385,292,-36,7952,96,74,-24,135.55,0.02,-2.03,1
340,1768267385,272,38,7964,103,81,-24,135.55,0.1,-2.03,1
341,1768267385,316,22,7936,103,76,-27,135.55,0.13,-2.1,1
342,1768267385,256,-20,7936,96,80,-30,135.55,0.1,-2.07,1
343,1768267385,264,18,7976,100,79,-26,135.55,0.13,-2.05,1
344,1768267385,248,48,7984,102,80,-33,135.55,0.2,-2.02,1
345,1768267385,290,-36,7960,93,80,-23,135.55,0.13,-2.05,1
346,1768267385,320,-56,7998,95,85,-26,135.55,0.04,-2.12,1
347,1768267385,302,-4,8004,100,78,-23,135.55,0.05,-2.14,1
348,1768267385,248,-18,8016,103,86,-29,135.55,0.04,-2.09,1
349,1768267385,288,-28,8054,103,84,-26,135.55,0.02,-2.1,1
350,1768267385,284,-14,7970,100,77,-22,135.55,0.02,-2.11,1
351,1768267385,298,-6,8022,101,81,-27,135.55,0.03,-2.13,1
352,1768267385,308,-16,7982,96,79,-31,135.55,0.02,-2.16,1
353,1768267385,292,-22,7976,94,78,-25,125.17,0.01,-2.17,1
354,1768267385,282,-4,7962,97,85,-26,125.17,0.02,-2.16,1
355,1768267385,258,8,7986,97,81,-27,125.17,0.05,-2.12,1
356,1768267385,276,-46,8004,98,83,-26,125.17,0.0,-2.11,1
357,1768267385,274,-36,7960,103,80,-27,125.17,-0.02,-2.1,1
358,1768267385,288,-26,7976,102,87,-25,125.17,-0.03,-2.11,1
359,1768267385,276,-28,8006,95,84,-25,125.17,-0.04,-2.1,1
360,1768267385,258,18,7998,102,80,-28,125.17,0.01,-2.07,1
361,1768267385,224,-20,8034,103,83,-27,125.17,0.01,-2.0,1
362,1768267385,270,-22,7946,96,79,-24,125.17,0.0,-2.0,1
363,1768267385,326,6,8004,100,76,-25,125.17,0.03,-2.09,1
364,1768267385,304,6,7928,101,81,-23,125.17,0.05,-2.13,1
365,1768267385,274,-14,7974,103,85,-26,125.17,0.05,-2.12,1
366,1768267385,298,-28,8016,99,79,-29,125.17,0.02,-2.14,1
367,1768267385,288,44,8018,99,84,-26,125.17,0.1,-2.14,1
368,1768267385,282,18,8010,102,79,-24,125.17,0.13,-2.13,1
369,1768267385,272,-44,7966,98,85,-26,125.17,0.07,-2.12,1
370,1768267385,244,-22,8048,94,83,-27,125.17,0.04,-2.06,1
371,1768267386,234,-6,8052,102,84,-28,125.17,0.05,-2.0,1
372,1768267386,322,-64,7958,103,83,-27,125.17,-0.02,-2.08,1
373,1768267386,300,-36,8020,97,74,-31,125.17,-0.04,-2.11,1
374,1768267386,286,24,8026,105,82,-28,125.17,0.02,-2.12,1
375,1768267386,300,14,7972,99,80,-25,125.17,0.06,-2.14,1
376,1768267386,286,-42,7996,98,80,-26,125.17,0.01,-2.14,1
377,1768267386,282,-20,8004,102,81,-22,125.17,0.0,-2.14,1
378,1768267386,240,14,7988,102,85,-27,134.73,0.05,-2.07,1
379,1768267386,284,-16,7992,101,82,-25,134.73,0.04,-2.08,1
380,1768267386,266,-4,7984,99,72,-27,134.73,0.05,-2.07,1
381,1768267386,284,10,8018,102,84,-26,134.73,0.08,-2.08,1
382,1768267386,288,-8,7980,103,84,-28,134.73,0.07,-2.1,1
383,1768267386,286,-16,7982,100,81,-29,134.73,0.06,-2.11,1
384,1768267386,268,-10,7994,97,77,-25,134.73,0.06,-2.09,1
385,1768267386,274,-44,7988,103,82,-24,134.73,0.01,-2.08,1
386,1768267386,274,6,8012,98,79,-26,134.73,0.04,-2.07,1
387,1768267386,250,30,7996,101,84,-28,134.73,0.1,-2.04,1
388,1768267386,310,18,7984,100,80,-27,134.73,0.13,-2.09,1
389,1768267386,298,-14,7968,95,80,-23,134.73,0.1,-2.12,1
390,1768267386,288,10,7998,102,83,-28,134.73,0.12,-2.13,1
391,1768267386,260,6,8022,100,82,-29,134.73,0.13,-2.09,1
392,1768267386,300,-16,8014,102,78,-28,134.73,0.1,-2.12,1
393,1768267386,260,-14,8012,102,82,-28,134.73,0.09,-2.09,1
394,1768267386,268,-22,8034,100,84,-24,134.73,0.06,-2.07,1
395,1768267386,282,-18,8008,95,79,-23,134.73,0.05,-2.08,1
396,1768267386,294,-6,8008,97,81,-25,134.73,0.05,-2.1,1
397,1768267386,280,6,7972,103,83,-29,134.73,0.07,-2.1,1
398,1768267386,264,-56,7990,94,76,-24,134.73,0.0,-2.08,1
399,1768267386,300,18,7958,101,81,-24,134.73,0.05,-2.11,1
400,1768267386,298,2,7944,101,81,-27,134.73,0.07,-2.14,1
401,1768267386,262,-54,7976,95,77,-29,134.73,0.0,-2.11,1
402,1768267386,288,-2,8018,104,78,-27,134.73,0.02,-2.11,1
403,1768267386,294,12,7938,102,84,-28,132.29,0.06,-2.13,1
404,1768267386,286,-22,8020,100,83,-25,132.29,0.04,-2.14,1
405,1768267386,258,2,8032,99,79,-25,132.29,0.06,-2.09,1
406,1768267386,274,-4,7898,101,84,-27,132.29,0.06,-2.09,1
407,1768267386,296,-46,8026,103,83,-29,132.29,0.01,-2.12,1
408,1768267386,274,-36,7982,96,77,-31,132.29,-0.01,-2.1,1
409,1768267386,244,34,7970,105,82,-27,132.29,0.06,-2.05,1
410,1768267386,282,-14,8004,100,76,-29,132.29,0.05,-2.06,1
411,1768267386,286,-28,8006,100,76,-24,132.29,0.02,-2.08,1
412,1768267386,262,6,7984,104,79,-26,132.29,0.05,-2.06,1
413,1768267386,304,16,8016,102,87,-31,132.29,0.09,-2.1,1
414,1768267386,264,-22,8030,101,81,-26,132.29,0.06,-2.08,1
415,1768267386,296,6,7914,97,79,-26,132.29,0.08,-2.11,1
416,1768267386,254,-38,8038,100,80,-24,132.29,0.03,-2.07,1
417,1768267386,266,10,8034,100,73,-33,132.29,0.06,-2.05,1
418,1768267386,282,-6,8008,104,77,-24,132.29,0.07,-2.06,1
419,1768267386,272,-42,7964,102,79,-29,132.29,0.02,-2.06,1
420,1768267386,276,12,8006,102,80,-24,132.29,0.06,-2.06,1
421,1768267387,288,-2,7950,101,83,-26,132.29,0.07,-2.08,1
422,1768267387,282,-6,8028,98,80,-31,132.29,0.07,-2.09,1
423,1768267387,272,28,7972,104,83,-23,132.29,0.12,-2.08,1
424,1768267387,310,-22,7962,101,82,-30,132.29,0.09,-2.13,1
425,1768267387,260,-34,8012,97,78,-21,132.29,0.04,-2.09,1
426,1768267387,288,18,8020,110,80,-28,132.29,0.09,-2.1,1
427,1768267387,284,-12,7972,102,83,-24,132.29,0.08,-2.11,1
428,1768267387,298,-12,7996,100,78,-24,134.41,0.07,-2.13,1
429,1768267387,284,36,8006,102,78,-25,134.41,0.13,-2.13,1
430,1768267387,264,18,7970,104,82,-23,134.41,0.15,-2.1,1
431,1768267387,282,-10,8008,100,79,-31,134.41,0.13,-2.1,1
432,1768267387,274,-2,8030,102,82,-28,134.41,0.13,-2.09,1
433,1768267387,284,-4,8030,101,83,-29,134.41,0.12,-2.1,1
434,1768267387,260,-26,8010,97,80,-28,134.41,0.08,-2.07,1
435,1768267387,266,-10,7970,104,83,-29,134.41,0.07,-2.06,1
436,1768267387,264,18,7992,102,82,-28,134.41,0.11,-2.04,1
437,1768267387,312,-34,8008,96,75,-22,134.41,0.06,-2.1,1
438,1768267387,274,14,7986,105,83,-26,134.41,0.09,-2.09,1
439,1768267387,234,14,7988,103,85,-27,134.41,0.12,-2.03,1
440,1768267387,334,-40,8016,103,78,-27,134.41,0.06,-2.12,1
441,1768267387,270,2,8010,98,79,-26,134.41,0.08,-2.1,1
442,1768267387,272,-24,7988,95,80,-25,134.41,0.05,-2.09,1
443,1768267387,268,-16,8022,103,81,-23,134.41,0.04,-2.07,1
444,1768267387,250,6,7988,97,82,-29,134.41,0.06,-2.03,1
445,1768267387,282,8,8006,104,81,-24,134.41,0.09,-2.05,1
446,1768267387,274,-8,7990,101,83,-31,134.41,0.08,-2.05,1
447,1768267387,276,14,7960,98,80,-28,134.41,0.11,-2.06,1
448,1768267387,278,-14,7980,93,76,-25,134.41,0.09,-2.06,1
449,1768267387,282,8,7946,103,74,-26,134.41,0.11,-2.07,1
450,1768267387,266,-18,7990,106,82,-31,134.41,0.08,-2.06,1
451,1768267387,300,-16,7962,97,76,-30,134.41,0.07,-2.1,1
452,1768267387,268,4,8004,103,80,-29,134.41,0.08,-2.08,1
453,1768267387,282,-14,7962,102,81,-27,133.39,0.07,-2.09,1
454,1768267387,326,-12,8042,100,75,-25,133.39,0.06,-2.15,1
455,1768267387,246,30,7944,103,82,-29,133.39,0.12,-2.1,1
456,1768267387,278,-54,7914,101,85,-25,133.39,0.04,-2.1,1
457,1768267387,270,-2,8006,99,80,-30,133.39,0.05,-2.08,1
458,1768267387,284,-8,8018,106,80,-24,133.39,0.06,-2.09,1
459,1768267387,296,-10,8006,96,80,-28,133.39,0.05,-2.11,1
460,1768267387,264,-12,8006,96,79,-25,133.39,0.05,-2.09,1
461,1768267387,262,-20,8008,105,85,-28,133.39,0.03,-2.06,1
462,1768267387,298,0,7984,99,77,-25,133.39,0.05,-2.1,1
463,1768267387,254,36,7992,97,81,-28,133.39,0.11,-2.06,1
464,1768267387,274,-22,7980,100,83,-25,133.39,0.08,-2.06,1
465,1768267387,296,-36,8002,97,73,-29,133.39,0.04,-2.09,1
466,1768267387,254,18,8010,97,84,-30,133.39,0.08,-2.05,1
467,1768267387,300,-20,8002,97,80,-25,133.39,0.06,-2.09,1
468,1768267387,280,-24,8000,98,81,-31,133.39,0.03,-2.09,1
469,1768267387,288,2,7954,99,81,-23,133.39,0.05,-2.11,1
470,1768267387,290,-28,7994,99,81,-26,133.39,0.03,-2.12,1
471,1768267388,276,-10,8000,104,82,-26,133.39,0.03,-2.11,1
472,1768267388,346,2,7982,96,81,-30,133.39,0.05,-2.2,1
473,1768267388,278,-8,7990,104,84,-29,133.39,0.05,-2.18,1
474,1768267388,294,14,7996,101,82,-23,133.39,0.09,-2.18,1
475,1768267388,266,-18,8010,95,76,-24,133.39,0.07,-2.15,1
476,1768267388,286,-8,8004,104,82,-23,133.39,0.07,-2.15,1
477,1768267388,282,-6,8028,103,87,-25,133.39,0.07,-2.14,1
478,1768267388,298,-14,7998,98,75,-23,135.6,0.06,-2.16,1
479,1768267388,282,0,7960,101,82,-26,135.6,0.07,-2.15,1
480,1768267388,278,4,7956,102,81,-30,135.6,0.09,-2.14,1
481,1768267388,246,-12,8006,106,81,-28,135.6,0.08,-2.08,1
482,1768267388,272,-2,7952,104,84,-21,135.6,0.08,-2.08,1
483,1768267388,274,-62,7990,97,83,-26,135.6,0.0,-2.07,1
484,1768267388,278,-6,8018,100,77,-28,135.6,0.01,-2.07,1
485,1768267388,244,4,8016,103,80,-25,135.6,0.04,-2.03,1
486,1768267388,312,-68,8046,104,78,-24,135.6,-0.03,-2.08,1
487,1768267388,238,8,8024,103,82,-30,135.6,0.0,-2.03,1
488,1768267388,256,-6,8032,102,82,-27,135.6,0.02,-2.0,1
489,1768267388,220,-32,8018,101,85,-28,135.6,0.0,-1.94,1
490,1768267388,230,54,7986,103,86,-18,135.6,0.1,-1.9,1
491,1768267388,320,-2,7924,96,76,-22,135.6,0.1,-2.0,1
492,1768267388,366,-54,7994,97,84,-26,135.6,0.02,-2.14,1
493,1768267388,378,-4,7984,98,87,-37,135.6,0.04,-2.28,1
494,1768267388,328,12,7972,100,85,-34,135.6,0.07,-2.31,1
495,1768267388,210,80,7942,101,90,-14,135.6,0.19,-2.17,1
496,1768267388,174,-32,8012,98,90,1,135.6,0.13,-2.01,1
497,1768267388,174,-66,7966,103,86,-13,135.6,0.04,-1.88,1
498,1768267388,206,-50,7998,98,85,-38,135.6,-0.01,-1.82,1
499,1768267388,364,18,8000,97,78,-41,135.6,0.03,-1.99,1
500,1768267388,354,26,7996,109,83,-31,135.6,0.09,-2.12,1
