SampleIndex,Timestamp,Ax,Ay,Az,Gx,Gy,Gz,RMS,Pitch,Roll,StepCount
1,1768267348,304,-18,8034,101,82,-29,131.74,0.03,-2.15,1
2,1768267348,282,18,8034,100,79,-26,131.74,0.07,-2.14,1
3,1768267348,284,-40,7956,97,81,-26,145.11,0.02,-2.14,1
4,1768267348,286,-24,8032,97,75,-29,145.11,0.01,-2.14,1
5,1768267348,294,6,7972,105,80,-25,145.11,0.04,-2.15,1
6,1768267348,308,-10,8052,103,83,-22,145.11,0.04,-2.18,1
7,1768267348,312,10,7958,96,75,-23,145.11,0.07,-2.21,1
8,1768267348,262,-32,8014,101,79,-34,145.11,0.03,-2.16,1
9,1768267348,264,-12,8014,102,81,-27,145.11,0.03,-2.12,1
10,1768267348,276,-6,7932,104,82,-28,145.11,0.04,-2.12,1
11,1768267348,264,-8,7964,98,80,-26,145.11,0.05,-2.09,1
12,1768267348,290,16,7982,99,74,-25,145.11,0.08,-2.11,1
13,1768267348,258,-4,8052,103,84,-25,145.11,0.08,-2.07,1
14,1768267348,258,8,8012,106,82,-26,145.11,0.1,-2.05,1
15,1768267348,286,-8,7974,101,78,-26,145.11,0.1,-2.07,1
16,1768267348,288,-38,8002,100,81,-24,145.11,0.05,-2.08,1
17,1768267348,272,-30,7976,99,79,-27,145.11,0.02,-2.08,1
18,1768267348,254,-4,8006,104,81,-27,145.11,0.03,-2.04,1
19,1768267348,272,22,7952,103,82,-33,145.11,0.08,-2.04,1
20,1768267348,272,-28,7968,104,80,-23,145.11,0.05,-2.05,1
21,1768267349,248,-44,8018,98,81,-27,145.11,0.0,-2.01,1
22,1768267349,302,8,8010,99,80,-22,145.11,0.03,-2.06,1
23,1768267349,300,20,7982,103,79,-24,145.11,0.08,-2.1,1
24,1768267349,280,6,7926,99,82,-23,145.11,0.1,-2.1,1
25,1768267349,292,-14,7976,100,78,-24,145.11,0.08,-2.12,1
26,1768267349,274,-2,7982,98,75,-27,145.11,0.08,-2.1,1
27,1768267349,254,10,8018,101,81,-27,145.11,0.11,-2.07,1
28,1768267349,254,0,7974,97,83,-27,130.5,0.11,-2.04,1
29,1768267349,266,-50,8022,101,89,-25,130.5,0.04,-2.03,1
30,1768267349,266,2,8024,99,82,-25,130.5,0.06,-2.02,1
31,1768267349,290,24,8042,102,84,-26,130.5,0.1,-2.05,1
32,1768267349,300,-12,7980,104,82,-29,130.5,0.09,-2.09,1
33,1768267349,274,-50,8004,95,81,-25,130.5,0.02,-2.08,1
34,1768267349,270,-22,8056,102,80,-27,130.5,0.01,-2.07,1
35,1768267349,276,18,7984,103,84,-30,130.5,0.06,-2.07,1
36,1768267349,264,-28,8016,101,83,-25,130.5,0.03,-2.05,1
37,1768267349,280,-18,8008,99,82,-22,130.5,0.02,-2.06,1
38,1768267349,310,-22,8006,100,83,-26,130.5,0.01,-2.11,1
39,1768267349,272,2,8018,105,77,-27,130.5,0.04,-2.1,1
40,1768267349,286,2,7972,98,83,-22,130.5,0.05,-2.11,1
41,1768267349,290,12,8008,95,79,-27,130.5,0.08,-2.12,1
42,1768267349,300,-36,8068,102,79,-25,130.5,0.04,-2.14,1
43,1768267349,276,-12,8006,105,81,-24,130.5,0.04,-2.13,1
44,1768267349,242,-14,7978,101,83,-21,130.5,0.03,-2.07,1
45,1768267349,312,-8,7996,96,77,-24,130.5,0.04,-2.12,1
46,1768267349,278,12,8060,100,81,-26,130.5,0.07,-2.11,1
47,1768267349,260,30,8014,102,82,-27,130.5,0.12,-2.08,1
48,1768267349,288,8,7954,104,81,-23,130.5,0.13,-2.1,1
49,1768267349,266,-20,7976,95,83,-25,130.5,0.1,-2.08,1
50,1768267349,308,-20,8058,95,76,-28,130.5,0.07,-2.12,1
51,1768267349,244,0,7962,101,81,-23,130.5,0.08,-2.06,1
52,1768267349,254,-16,7930,103,82,-29,130.5,0.07,-2.04,1
53,1768267349,280,-50,7934,95,77,-27,143.69,0.0,-2.05,1
54,1768267349,288,6,7992,100,76,-24,143.69,0.04,-2.07,1
55,1768267349,272,24,8000,101,83,-23,143.69,0.09,-2.07,1
56,1768267349,276,34,7974,102,80,-28,143.69,0.14,-2.07,1
57,1768267349,324,-50,8010,100,76,-26,143.69,0.07,-2.14,1
58,1768267349,290,-28,8030,99,79,-27,143.69,0.04,-2.14,1
59,1768267349,288,-16,8026,104,83,-25,143.69,0.03,-2.14,1
60,1768267349,238,14,7954,105,87,-24,143.69,0.07,-2.08,1
61,1768267349,260,-24,8008,98,82,-27,143.69,0.04,-2.05,1
62,1768267349,296,-10,8040,98,76,-31,143.69,0.04,-2.08,1
63,1768267349,266,0,8022,101,87,-25,143.69,0.06,-2.07,1
64,1768267349,246,26,7922,103,82,-25,143.69,0.11,-2.03,1
65,1768267349,256,-10,7974,96,81,-27,143.69,0.09,-2.01,1
66,1768267349,288,-16,8026,97,80,-25,143.69,0.08,-2.04,1
67,1768267349,296,48,8004,101,79,-25,143.69,0.15,-2.07,1
68,1768267349,226,16,7974,99,84,-28,143.69,0.17,-2.0,1
69,1768267349,296,-40,7962,94,84,-25,143.69,0.1,-2.05,1
70,1768267349,306,-24,7978,102,76,-24,143.69,0.07,-2.09,1
71,1768267350,264,24,8038,101,82,-24,143.69,0.11,-2.07,1
72,1768267350,240,-4,7962,100,82,-21,143.69,0.11,-2.02,1
73,1768267350,282,-10,7974,96,79,-25,143.69,0.09,-2.04,1
74,1768267350,306,-12,8000,100,76,-28,143.69,0.08,-2.09,1
75,1768267350,244,4,8066,98,80,-26,143.69,0.09,-2.04,1
76,1768267350,256,42,7984,105,82,-24,143.69,0.16,-2.01,1
77,1768267350,290,-30,7994,98,85,-28,143.69,0.11,-2.05,1
78,1768267350,300,-68,8036,97,80,-27,138.58,0.01,-2.08,1
79,1768267350,292,-16,8034,105,81,-27,138.58,0.01,-2.1,1
80,1768267350,272,40,7998,102,81,-26,138.58,0.09,-2.09,1
81,1768267350,300,-18,7910,101,82,-29,138.58,0.07,-2.13,1
82,1768267350,296,2,7946,98,77,-28,138.58,0.08,-2.14,1
83,1768267350,264,28,8028,104,80,-26,138.58,0.13,-2.11,1
84,1768267350,280,18,8002,107,83,-28,138.58,0.15,-2.11,1
85,1768267350,286,4,7982,95,76,-29,138.58,0.15,-2.12,1
86,1768267350,278,-20,7964,98,81,-27,138.58,0.12,-2.11,1
87,1768267350,294,-4,8014,103,76,-21,138.58,0.11,-2.13,1
88,1768267350,272,4,8024,104,84,-27,138.58,0.12,-2.11,1
89,1768267350,270,-2,7970,98,81,-22,138.58,0.12,-2.09,1
90,1768267350,308,-24,8028,98,80,-26,138.58,0.08,-2.13,1
91,1768267350,286,6,8006,95,78,-23,138.58,0.1,-2.13,1
92,1768267350,284,4,8012,104,79,-28,138.58,0.11,-2.13,1
93,1768267350,282,-4,7940,102,81,-24,138.58,0.1,-2.13,1
94,1768267350,274,-26,7984,102,80,-26,138.58,0.07,-2.12,1
95,1768267350,290,6,8074,106,81,-23,138.58,0.09,-2.12,1
96,1768267350,308,12,7978,104,81,-26,138.58,0.11,-2.16,1
97,1768267350,240,0,7970,102,81,-24,138.58,0.11,-2.09,1
98,1768267350,288,-40,8006,97,77,-25,138.58,0.06,-2.1,1
99,1768267350,296,-34,8028,99,77,-23,138.58,0.02,-2.12,1
100,1768267350,266,8,7992,100,80,-26,138.58,0.05,-2.1,1
101,1768267350,268,-2,8002,103,81,-25,138.58,0.06,-2.08,1
102,1768267350,226,-44,8002,98,85,-22,138.58,0.01,-2.01,1
103,1768267350,278,-8,7974,98,78,-27,135.41,0.02,-2.02,1
104,1768267350,250,12,7986,101,80,-24,135.41,0.06,-2.0,1
105,1768267350,264,-26,7994,100,82,-15,135.41,0.03,-1.99,1
106,1768267350,282,-32,8006,101,80,-26,135.41,0.0,-2.02,1
107,1768267350,284,0,7994,99,79,-29,135.41,0.03,-2.04,1
108,1768267350,266,10,8040,105,80,-26,135.41,0.06,-2.03,1
109,1768267350,290,-28,7958,99,82,-23,135.41,0.03,-2.06,1
110,1768267350,272,-20,7982,96,84,-23,135.41,0.02,-2.06,1
111,1768267350,302,-10,8028,99,82,-29,135.41,0.02,-2.1,1
112,1768267350,252,6,7980,100,77,-28,135.41,0.05,-2.06,1
113,1768267350,282,8,8016,103,83,-26,135.41,0.08,-2.07,1
114,1768267350,284,-34,7992,98,82,-24,135.41,0.04,-2.08,1
115,1768267350,272,0,8012,99,77,-25,135.41,0.05,-2.07,1
116,1768267350,282,-8,8012,101,81,-25,135.41,0.05,-2.08,1
117,1768267350,260,12,7964,104,80,-25,135.41,0.08,-2.06,1
118,1768267350,270,12,8016,101,71,-27,135.41,0.11,-2.05,1
119,1768267350,308,-16,8070,101,74,-24,135.41,0.09,-2.09,1
120,1768267350,290,-6,7982,106,80,-27,135.41,0.09,-2.11,1
121,1768267351,262,4,8042,99,81,-28,135.41,0.1,-2.08,1
122,1768267351,258,-8,7954,101,79,-26,135.41,0.09,-2.05,1
123,1768267351,280,8,7986,99,75,-31,135.41,0.11,-2.06,1
124,1768267351,264,34,8014,100,80,-29,135.41,0.16,-2.04,1
125,1768267351,290,-30,7974,106,80,-25,135.41,0.11,-2.07,1
126,1768267351,280,-18,7950,100,79,-26,135.41,0.08,-2.08,1
127,1768267351,324,-26,8010,101,80,-25,135.41,0.05,-2.14,1
128,1768267351,230,26,8040,103,77,-26,140.61,0.1,-2.06,1
129,1768267351,292,-22,8036,99,76,-25,140.61,0.08,-2.08,1
130,1768267351,266,-6,7990,102,80,-26,140.61,0.08,-2.07,1
131,1768267351,314,-44,8004,100,79,-27,140.61,0.02,-2.12,1
132,1768267351,306,-24,8006,98,82,-28,140.61,0.01,-2.15,1
133,1768267351,286,12,7968,101,81,-28,140.61,0.05,-2.15,1
134,1768267351,280,-10,8018,101,84,-28,140.61,0.05,-2.14,1
135,1768267351,268,-34,8010,98,84,-25,140.61,0.01,-2.12,1
136,1768267351,292,20,8014,94,80,-25,140.61,0.06,-2.13,1
137,1768267351,288,4,8024,98,81,-24,140.61,0.08,-2.13,1
138,1768267351,254,-14,7956,99,81,-20,140.61,0.06,-2.09,1
139,1768267351,298,-8,7984,101,80,-27,140.61,0.06,-2.12,1
140,1768267351,280,16,8004,103,76,-23,140.61,0.1,-2.11,1
141,1768267351,266,2,7960,101,84,-23,140.61,0.1,-2.09,1
142,1768267351,274,-14,7962,97,84,-24,140.61,0.09,-2.09,1
143,1768267351,238,-14,7978,98,78,-26,140.61,0.07,-2.03,1
144,1768267351,300,8,8034,98,81,-25,140.61,0.09,-2.07,1
145,1768267351,248,-4,8030,99,86,-26,140.61,0.09,-2.03,1
146,1768267351,250,24,8080,98,82,-25,140.61,0.13,-2.0,1
147,1768267351,282,-28,8034,103,77,-22,140.61,0.09,-2.02,1
148,1768267351,280,6,7990,100,78,-24,140.61,0.1,-2.03,1
149,1768267351,260,12,8018,100,79,-31,140.61,0.12,-2.02,1
150,1768267351,298,36,8010,99,81,-23,140.61,0.17,-2.06,1
151,1768267351,282,-10,7980,97,83,-25,140.61,0.15,-2.07,1
152,1768267351,288,-28,7990,98,78,-24,140.61,0.1,-2.09,1
153,1768267351,256,-6,8000,101,77,-19,143.79,0.1,-2.05,1
154,1768267351,272,-16,8026,99,80,-22,143.79,0.08,-2.05,1
155,1768267351,272,-30,7998,100,78,-26,143.79,0.04,-2.05,1
156,1768267351,298,-2,7980,102,80,-29,143.79,0.05,-2.08,1
157,1768267351,294,-18,8032,101,81,-27,143.79,0.04,-2.11,1
158,1768267351,262,-18,7998,101,82,-22,143.79,0.03,-2.08,1
159,1768267351,290,-6,7916,103,80,-23,143.79,0.04,-2.1,1
160,1768267351,266,-8,7972,101,80,-29,143.79,0.04,-2.08,1
161,1768267351,262,-14,8038,101,79,-28,143.79,0.04,-2.06,1
162,1768267351,258,16,8032,104,79,-26,143.79,0.08,-2.03,1
163,1768267351,238,20,8008,101,85,-25,143.79,0.12,-1.99,1
164,1768267351,280,-6,7896,102,79,-29,143.79,0.11,-2.01,1
165,1768267351,280,-14,8036,99,83,-28,143.79,0.09,-2.03,1
166,1768267351,278,-2,8018,103,83,-28,143.79,0.09,-2.04,1
167,1768267351,256,6,8004,102,83,-29,143.79,0.11,-2.02,1
168,1768267351,308,10,8000,98,79,-27,143.79,0.12,-2.07,1
169,1768267351,290,-22,8028,101,80,-31,143.79,0.09,-2.09,1
170,1768267351,302,14,8036,99,82,-26,143.79,0.12,-2.12,1
171,1768267352,280,-2,8018,98,82,-22,143.79,0.11,-2.12,1
172,1768267352,288,-32,7990,99,77,-24,143.79,0.07,-2.12,1
173,1768267352,284,22,8028,100,81,-28,143.79,0.11,-2.12,1
174,1768267352,252,-8,8046,102,80,-26,143.79,0.1,-2.08,1
175,1768267352,254,14,8024,103,85,-27,143.79,0.12,-2.04,1
176,1768267352,304,4,7982,97,80,-30,143.79,0.13,-2.09,1
177,1768267352,272,-6,8040,101,79,-27,143.79,0.12,-2.08,1
178,1768267352,290,-36,8038,105,77,-23,147.95,0.07,-2.09,1
179,1768267352,240,16,8012,95,80,-26,147.95,0.1,-2.04,1
180,1768267352,308,14,7968,97,79,-27,147.95,0.12,-2.09,1
181,1768267352,274,-34,7972,98,75,-29,147.95,0.07,-2.08,1
182,1768267352,210,-16,8018,98,81,-26,147.95,0.06,-1.99,1
183,1768267352,258,-2,7990,99,79,-23,147.95,0.07,-1.98,1
184,1768267352,308,4,7984,100,83,-23,147.95,0.08,-2.04,1
185,1768267352,294,-12,8000,96,79,-23,147.95,0.07,-2.07,1
186,1768267352,-306,-58,8774,106,89,-26,147.95,0.01,-1.28,1
187,1768267352,-1898,92,9020,109,94,-29,147.95,0.14,1.32,1
188,1768267352,1088,12,7266,112,75,-29,147.95,0.16,-0.66,1
189,1768267352,454,-4,7406,105,85,-24,147.95,0.15,-1.25,1
190,1768267352,310,20,7836,103,74,-25,147.95,0.17,-1.47,1
191,1768267352,582,2,7740,98,80,-24,147.95,0.16,-2.05,1
192,1768267352,256,4,7940,101,84,-25,147.95,0.16,-2.03,1
193,1768267352,230,-12,7994,103,80,-22,147.95,0.13,-1.97,1
194,1768267352,322,-54,7988,103,71,-26,147.95,0.05,-2.06,1
195,1768267352,302,38,8008,103,76,-24,147.95,0.12,-2.09,1
196,1768267352,284,20,8036,102,84,-22,147.95,0.15,-2.1,1
197,1768267352,268,-6,7998,98,77,-28,147.95,0.13,-2.08,1
198,1768267352,282,-8,8004,100,75,-25,147.95,0.12,-2.09,1
199,1768267352,248,8,8036,102,78,-29,147.95,0.13,-2.04,1
200,1768267352,280,-6,7994,107,79,-27,147.95,0.12,-2.05,1
201,1768267352,278,-18,7970,98,87,-22,147.95,0.09,-2.06,1
202,1768267352,266,-22,7976,101,74,-28,147.95,0.07,-2.05,1
203,1768267352,252,-22,8038,103,82,-23,158.35,0.05,-2.02,1
204,1768267352,272,-20,8008,103,83,-21,158.35,0.03,-2.02,1
205,1768267352,274,-50,7988,102,79,-26,158.35,-0.01,-2.03,1
206,1768267352,328,6,7966,101,80,-28,158.35,0.02,-2.11,1
207,1768267352,252,32,8006,101,80,-28,158.35,0.08,-2.07,1
208,1768267352,264,50,8026,101,85,-25,158.35,0.16,-2.05,1
209,1768267352,298,-44,7984,92,80,-23,158.35,0.09,-2.09,1
210,1768267352,266,-28,7980,98,78,-26,158.35,0.05,-2.07,1
211,1768267352,278,20,8014,101,77,-27,158.35,0.09,-2.07,1
212,1768267352,262,0,7948,106,86,-24,158.35,0.1,-2.05,1
213,1768267352,260,4,7962,97,78,-28,158.35,0.11,-2.04,1
214,1768267352,292,-48,8012,95,78,-29,158.35,0.04,-2.06,1
215,1768267352,256,32,8052,98,77,-27,158.35,0.1,-2.03,1
216,1768267352,256,32,8006,105,78,-27,158.35,0.15,-2.01,1
217,1768267352,270,-14,7986,99,77,-26,158.35,0.12,-2.01,1
218,1768267352,284,6,7998,99,81,-29,158.35,0.13,-2.04,1
219,1768267352,264,8,7992,100,77,-26,158.35,0.14,-2.03,1
220,1768267352,230,8,7980,103,80,-28,158.35,0.15,-1.97,1
221,1768267353,280,-32,7984,96,83,-28,158.35,0.09,-2.0,1
222,1768267353,276,-16,7986,101,78,-28,158.35,0.08,-2.01,1
223,1768267353,274,24,7994,102,84,-28,158.35,0.12,-2.02,1
224,1768267353,230,8,7952,102,81,-17,158.35,0.13,-1.97,1
225,1768267353,286,-12,7968,97,78,-24,158.35,0.11,-2.0,1
226,1768267353,268,-24,8032,99,83,-23,158.35,0.08,-2.0,1
227,1768267353,286,-26,8060,104,81,-25,158.35,0.05,-2.03,1
228,1768267353,262,-2,7976,105,80,-25,134.77,0.06,-2.02,1
229,1768267353,254,-32,7990,102,84,-23,134.77,0.03,-2.0,1
230,1768267353,252,-44,7972,96,81,-25,134.77,-0.01,-1.98,1
231,1768267353,290,22,7974,96,83,-24,134.77,0.04,-2.02,1
232,1768267353,246,50,7974,101,78,-29,134.77,0.13,-1.99,1
233,1768267353,288,-22,7978,100,78,-27,134.77,0.09,-2.02,1
234,1768267353,296,-44,7994,97,81,-29,134.77,0.03,-2.06,1
235,1768267353,316,14,8064,104,82,-26,134.77,0.07,-2.12,1
236,1768267353,240,20,8040,104,78,-27,134.77,0.11,-2.05,1
237,1768267353,274,6,7996,99,80,-27,134.77,0.12,-2.05,1
238,1768267353,276,-24,8012,93,83,-33,134.77,0.08,-2.06,1
239,1768267353,316,-16,8002,102,84,-29,134.77,0.07,-2.12,1
240,1768267353,248,2,7964,100,77,-22,134.77,0.08,-2.07,1
241,1768267353,282,-14,7990,100,82,-29,134.77,0.07,-2.08,1
242,1768267353,300,-62,7954,97,82,-23,134.77,0.0,-2.11,1
243,1768267353,282,0,8004,104,80,-26,134.77,0.01,-2.11,1
244,1768267353,250,6,8010,100,80,-30,134.77,0.04,-2.07,1
245,1768267353,290,22,7994,104,79,-22,134.77,0.09,-2.09,1
246,1768267353,290,-20,7972,101,80,-23,134.77,0.07,-2.1,1
247,1768267353,238,-6,8038,101,76,-25,134.77,0.07,-2.04,1
248,1768267353,226,0,7988,102,81,-24,134.77,0.08,-1.98,1
249,1768267353,232,2,8002,99,85,-23,134.77,0.09,-1.93,1
250,1768267353,266,-14,7960,97,78,-29,134.77,0.07,-1.95,1
251,1768267353,282,-16,8046,96,79,-26,134.77,0.06,-1.98,1
252,1768267353,268,22,7972,102,82,-21,134.77,0.1,-1.99,1
253,1768267353,248,12,7996,100,81,-25,135.8,0.12,-1.96,1
254,1768267353,268,-12,7954,99,80,-25,135.8,0.1,-1.97,1
255,1768267353,266,-14,8018,103,71,-22,135.8,0.09,-1.98,1
256,1768267353,260,18,8032,103,75,-23,135.8,0.12,-1.97,1
257,1768267353,300,4,7976,98,83,-22,135.8,0.12,-2.03,1
258,1768267353,278,-36,7926,97,79,-25,135.8,0.07,-2.04,1
259,1768267353,312,-6,8002,101,78,-25,135.8,0.07,-2.1,1
260,1768267353,232,2,7970,102,85,-21,135.8,0.08,-2.03,1
261,1768267353,236,-8,7986,105,81,-24,135.8,0.08,-1.98,1
262,1768267353,254,-28,7918,101,79,-25,135.8,0.05,-1.97,1
263,1768267353,294,-2,7970,99,77,-22,135.8,0.06,-2.02,1
264,1768267353,268,-8,8010,106,78,-24,135.8,0.06,-2.02,1
265,1768267353,260,-4,8008,101,84,-25,135.8,0.07,-2.0,1
266,1768267353,300,20,7972,99,82,-26,135.8,0.1,-2.05,1
267,1768267353,292,-10,8004,97,78,-22,135.8,0.09,-2.08,1
268,1768267353,248,12,8010,97,81,-22,135.8,0.11,-2.04,1
269,1768267353,278,44,7964,98,84,-21,135.8,0.18,-2.05,1
270,1768267353,292,-4,8002,97,84,-20,135.8,0.16,-2.08,1
271,1768267354,330,-14,7990,94,78,-25,135.8,0.13,-2.15,1
272,1768267354,280,30,8036,101,81,-26,135.8,0.17,-2.14,1
273,1768267354,312,0,8020,100,84,-29,135.8,0.16,-2.18,1
274,1768267354,280,-12,7970,102,85,-23,135.8,0.13,-2.16,1
275,1768267354,268,6,7954,94,79,-27,135.8,0.14,-2.14,1
276,1768267354,318,-18,7948,98,82,-25,135.8,0.11,-2.19,1
277,1768267354,278,16,7986,107,80,-23,135.8,0.13,-2.17,1
278,1768267354,312,-10,7982,93,84,-28,125.04,0.11,-2.2,1
279,1768267354,278,-18,8032,99,80,-24,125.04,0.09,-2.17,1
280,1768267354,278,-30,8000,98,80,-29,125.04,0.05,-2.16,1
281,1768267354,236,32,7990,103,84,-22,125.04,0.11,-2.08,1
282,1768267354,326,6,7948,97,81,-25,125.04,0.12,-2.15,1
283,1768267354,272,-2,7928,103,81,-24,125.04,0.12,-2.14,1
284,1768267354,258,6,7998,100,79,-22,125.04,0.13,-2.1,1
285,1768267354,250,52,8008,100,85,-27,125.04,0.2,-2.05,1
286,1768267354,290,-16,7994,98,82,-28,125.04,0.16,-2.08,1
287,1768267354,290,-14,7986,99,79,-26,125.04,0.13,-2.1,1
288,1768267354,252,16,8020,106,80,-30,125.04,0.15,-2.06,1
289,1768267354,298,16,7938,103,82,-25,125.04,0.17,-2.09,1
290,1768267354,240,-18,8014,100,84,-23,125.04,0.13,-2.04,1
291,1768267354,298,-52,7968,96,83,-24,125.04,0.05,-2.08,1
292,1768267354,290,-24,8034,98,80,-30,125.04,0.03,-2.09,1
293,1768267354,256,12,7994,103,82,-24,125.04,0.07,-2.06,1
294,1768267354,268,-10,8020,97,80,-30,125.04,0.06,-2.05,1
295,1768267354,302,-66,7982,100,80,-28,125.04,-0.01,-2.09,1
296,1768267354,258,2,7938,101,78,-23,125.04,0.01,-2.06,1
297,1768267354,244,6,8032,100,80,-27,125.04,0.04,-2.02,1
298,1768267354,260,-14,7958,101,82,-27,125.04,0.03,-2.01,1
299,1768267354,282,-34,7938,99,81,-28,125.04,0.0,-2.03,1
300,1768267354,274,10,8028,102,81,-32,125.04,0.04,-2.04,1
301,1768267354,298,-26,8010,101,85,-29,125.04,0.02,-2.07,1
302,1768267354,234,16,7976,101,82,-29,125.04,0.06,-2.01,1
303,1768267354,298,-28,7980,101,77,-22,129.05,0.03,-2.06,1
304,1768267354,280,-26,7996,101,80,-27,129.05,0.01,-2.07,1
305,1768267354,268,6,8022,99,82,-26,129.05,0.04,-2.05,1
306,1768267354,284,-18,7988,98,81,-24,129.05,0.03,-2.07,1
307,1768267354,278,-2,7942,99,77,-24,129.05,0.04,-2.07,1
308,1768267354,284,-28,7986,103,82,-26,129.05,0.02,-2.09,1
309,1768267354,278,-16,8038,104,82,-32,129.05,0.02,-2.08,1
310,1768267354,244,8,7970,100,79,-28,129.05,0.05,-2.04,1
311,1768267354,294,-24,7938,99,83,-26,129.05,0.03,-2.07,1
312,1768267354,276,-12,8080,98,79,-24,129.05,0.03,-2.07,1
313,1768267354,254,-28,7954,103,81,-27,129.05,0.01,-2.04,1
314,1768267354,238,-14,7988,103,82,-24,129.05,0.01,-1.99,1
315,1768267354,262,-20,7990,98,83,-22,129.05,0.0,-1.99,1
316,1768267354,284,-36,8036,102,81,-27,129.05,-0.02,-2.01,1
317,1768267354,256,-30,7990,100,78,-26,129.05,-0.03,-2.0,1
318,1768267354,284,14,8012,102,80,-27,129.05,0.01,-2.02,1
319,1768267354,246,10,7944,92,80,-27,129.05,0.05,-1.99,1
320,1768267354,316,-18,7984,95,85,-25,129.05,0.03,-2.07,1
321,1768267355,266,-14,7968,104,80,-23,129.05,0.03,-2.05,1
322,1768267355,264,0,7978,101,81,-23,129.05,0.05,-2.04,1
323,1768267355,262,8,7978,99,89,-27,129.05,0.07,-2.03,1
324,1768267355,272,-20,8020,104,83,-24,129.05,0.05,-2.03,1
325,1768267355,322,14,7930,99,81,-22,129.05,0.09,-2.11,1
326,1768267355,294,22,7998,100,83,-24,129.05,0.12,-2.13,1
327,1768267355,270,24,8022,100,79,-30,129.05,0.16,-2.11,1
328,1768267355,286,-24,7946,98,83,-21,128.44,0.11,-2.12,1
329,1768267355,284,10,7982,98,81,-26,128.44,0.13,-2.12,1
330,1768267355,274,16,7970,100,84,-24,128.44,0.15,-2.11,1
331,1768267355,304,-54,7962,101,82,-26,128.44,0.07,-2.14,1
332,1768267355,274,-6,8000,95,83,-25,128.44,0.07,-2.13,1
333,1768267355,312,-20,7958,97,80,-25,128.44,0.05,-2.17,1
334,1768267355,278,2,7952,106,83,-22,128.44,0.07,-2.15,1
335,1768267355,274,-12,7986,104,82,-26,128.44,0.06,-2.14,1
336,1768267355,262,-18,7956,101,87,-26,128.44,0.05,-2.11,1
337,1768267355,296,6,8010,96,83,-25,128.44,0.07,-2.13,1
338,1768267355,282,-40,8026,99,82,-24,128.44,0.02,-2.12,1
339,1768267355,278,-34,8008,101,78,-27,128.44,0.0,-2.11,1
340,1768267355,284,-2,7968,99,77,-30,128.44,0.01,-2.12,1
341,1768267355,296,-4,8000,105,79,-24,128.44,0.03,-2.14,1
342,1768267355,296,-12,8018,100,75,-24,128.44,0.03,-2.15,1
343,1768267355,282,-16,8000,99,83,-28,128.44,0.02,-2.14,1
344,1768267355,250,20,8028,100,78,-24,128.44,0.07,-2.09,1
345,1768267355,286,-46,7974,101,79,-26,128.44,0.01,-2.1,1
346,1768267355,268,-14,7980,104,76,-23,128.44,0.02,-2.08,1
347,1768267355,278,-14,8036,100,80,-26,128.44,0.02,-2.08,1
348,1768267355,270,-4,7994,99,78,-27,128.44,0.03,-2.07,1
349,1768267355,296,-26,7952,99,80,-28,128.44,0.01,-2.1,1
350,1768267355,288,-32,8008,105,81,-29,128.44,0.0,-2.11,1
351,1768267355,262,-12,7978,103,83,-23,128.44,0.0,-2.08,1
352,1768267355,278,28,7946,99,83,-28,128.44,0.06,-2.09,1
353,1768267355,254,-48,8002,99,81,-27,128.44,0.0,-2.05,1
354,1768267355,318,-18,7962,97,77,-23,128.44,0.0,-2.12,1
355,1768267355,284,50,8016,105,83,-25,128.44,0.1,-2.12,1
356,1768267355,248,16,7968,101,82,-26,128.44,0.12,-2.07,1
357,1768267355,288,-6,8024,100,83,-27,128.44,0.11,-2.09,1
358,1768267355,268,-2,8026,96,79,-27,128.44,0.11,-2.07,1
359,1768267355,302,2,7978,96,84,-22,128.44,0.11,-2.11,1
360,1768267355,304,6,8016,102,81,-22,128.44,0.12,-2.14,1
361,1768267355,292,-14,7952,99,79,-26,128.44,0.1,-2.15,1
362,1768267355,272,-20,8048,100,85,-25,128.44,0.08,-2.13,1
363,1768267355,284,30,8038,99,84,-26,128.44,0.13,-2.13,1
364,1768267355,296,22,7952,105,87,-25,128.44,0.16,-2.15,1
365,1768267355,276,-4,7960,96,84,-23,128.44,0.14,-2.14,1
366,1768267355,292,-46,8018,101,80,-26,128.44,0.07,-2.14,1
367,1768267355,304,38,8010,104,80,-26,128.44,0.14,-2.17,1
368,1768267355,270,22,8000,99,84,-29,128.44,0.16,-2.14,1
369,1768267355,278,-10,8040,100,83,-26,128.44,0.14,-2.13,1
370,1768267355,298,0,7992,100,76,-22,128.44,0.14,-2.15,1
371,1768267356,286,-36,8004,102,85,-26,128.44,0.08,-2.15,1
372,1768267356,268,-12,8006,104,83,-24,128.44,0.07,-2.12,1
373,1768267356,256,-22,7944,101,85,-25,128.44,0.05,-2.08,1
374,1768267356,300,-20,7970,96,80,-26,128.44,0.03,-2.12,1
375,1768267356,252,-4,7988,101,78,-27,128.44,0.04,-2.07,1
376,1768267356,264,8,8046,103,82,-29,128.44,0.07,-2.05,1
377,1768267356,266,22,7958,101,83,-28,128.44,0.11,-2.05,1
378,1768267356,262,-66,8028,96,82,-24,138.5,0.02,-2.03,1
379,1768267356,262,8,8030,101,80,-30,138.5,0.05,-2.02,1
380,1768267356,248,22,8020,108,83,-27,138.5,0.1,-1.99,1
381,1768267356,290,-22,7972,101,78,-30,138.5,0.07,-2.02,1
382,1768267356,296,-40,7890,98,75,-29,138.5,0.02,-2.07,1
383,1768267356,248,24,8032,101,82,-30,138.5,0.07,-2.03,1
384,1768267356,248,26,7932,106,76,-28,138.5,0.12,-2.0,1
385,1768267356,262,-28,7966,109,81,-28,138.5,0.08,-1.99,1
386,1768267356,294,-24,8032,97,81,-26,138.5,0.05,-2.03,1
387,1768267356,268,-2,8016,95,78,-25,138.5,0.06,-2.03,1
388,1768267356,274,18,7994,103,77,-24,138.5,0.1,-2.03,1
389,1768267356,286,6,7974,98,83,-26,138.5,0.11,-2.06,1
390,1768267356,264,-40,7988,99,78,-25,138.5,0.06,-2.04,1
391,1768267356,310,-52,8038,101,80,-24,138.5,0.0,-2.09,1
392,1768267356,276,22,8044,103,84,-24,138.5,0.05,-2.09,1
393,1768267356,314,14,7930,102,84,-23,138.5,0.08,-2.14,1
394,1768267356,294,-44,8004,94,78,-22,138.5,0.03,-2.15,1
395,1768267356,282,4,8002,99,84,-26,138.5,0.05,-2.15,1
396,1768267356,296,4,7990,103,81,-24,138.5,0.07,-2.16,1
397,1768267356,258,-6,7966,106,79,-26,138.5,0.07,-2.12,1
398,1768267356,322,-46,7962,98,84,-24,138.5,0.01,-2.18,1
399,1768267356,280,-10,8020,102,83,-26,138.5,0.02,-2.16,1
400,1768267356,260,14,8012,104,82,-26,138.5,0.06,-2.12,1
401,1768267356,290,2,7916,99,84,-26,138.5,0.08,-2.13,1
402,1768267356,252,-56,7990,102,80,-24,138.5,0.0,-2.09,1
403,1768267356,290,-16,8012,100,79,-21,129.98,0.0,-2.1,1
404,1768267356,246,-14,8046,104,81,-30,129.98,0.01,-2.05,1
405,1768267356,242,12,8020,106,88,-30,129.98,0.05,-2.01,1
406,1768267356,252,6,7946,95,81,-29,129.98,0.07,-1.99,1
407,1768267356,292,-30,8050,96,78,-25,129.98,0.04,-2.02,1
408,1768267356,238,28,8078,104,88,-25,129.98,0.09,-1.98,1
409,1768267356,282,-38,7894,100,84,-30,129.98,0.04,-2.01,1
410,1768267356,288,-16,7878,93,79,-26,129.98,0.03,-2.05,1
411,1768267356,334,0,7954,94,79,-27,129.98,0.05,-2.14,1
412,1768267356,270,34,8052,104,86,-28,129.98,0.11,-2.11,1
413,1768267356,260,14,8018,107,86,-29,129.98,0.13,-2.08,1
414,1768267356,284,-40,7966,95,78,-27,129.98,0.07,-2.09,1
415,1768267356,314,-38,7990,95,79,-29,129.98,0.03,-2.14,1
416,1768267356,254,6,7976,98,78,-30,129.98,0.05,-2.1,1
417,1768267356,252,28,7908,101,81,-30,129.98,0.11,-2.06,1
418,1768267356,246,14,7986,102,80,-29,129.98,0.13,-2.02,1
419,1768267356,292,-24,8130,102,82,-26,129.98,0.09,-2.05,1
420,1768267356,244,22,8052,107,81,-25,129.98,0.13,-2.0,1
421,1768267357,288,18,7982,102,80,-27,129.98,0.15,-2.03,1
422,1768267357,264,-20,7884,96,81,-30,129.98,0.12,-2.03,1
423,1768267357,276,-46,8010,94,76,-25,129.98,0.05,-2.04,1
424,1768267357,258,6,8096,106,80,-26,129.98,0.07,-2.01,1
425,1768267357,246,-12,8082,100,82,-23,129.98,0.06,-1.98,1
426,1768267357,250,-12,7948,100,86,-29,129.98,0.06,-1.96,1
427,1768267357,280,6,8000,99,83,-33,129.98,0.08,-1.99,1
428,1768267357,266,-12,8032,102,77,-21,139.65,0.07,-1.99,1
429,1768267357,270,30,7968,99,84,-24,139.65,0.12,-2.0,1
430,1768267357,302,-30,7966,101,74,-27,139.65,0.08,-2.05,1
431,1768267357,242,-2,7986,99,87,-29,139.65,0.08,-2.01,1
432,1768267357,278,8,8016,105,79,-31,139.65,0.1,-2.02,1
433,1768267357,270,4,7984,100,77,-26,139.65,0.11,-2.02,1
434,1768267357,302,-36,7948,97,80,-24,139.65,0.06,-2.07,1
435,1768267357,318,-20,7946,97,74,-24,139.65,0.04,-2.13,1
436,1768267357,282,12,8008,101,76,-27,139.65,0.07,-2.13,1
437,1768267357,274,16,8050,107,82,-24,139.65,0.11,-2.11,1
438,1768267357,294,-8,8046,100,86,-26,139.65,0.1,-2.13,1
439,1768267357,294,-26,7984,97,76,-24,139.65,0.06,-2.14,1
440,1768267357,290,-8,8008,94,72,-28,139.65,0.06,-2.14,1
441,1768267357,244,18,7970,105,82,-28,139.65,0.1,-2.09,1
442,1768267357,288,-4,7944,107,82,-31,139.65,0.1,-2.1,1
443,1768267357,276,-22,8018,108,85,-24,139.65,0.07,-2.1,1
444,1768267357,288,-20,8046,106,83,-27,139.65,0.06,-2.11,1
445,1768267357,278,-2,7932,101,75,-25,139.65,0.06,-2.1,1
446,1768267357,256,-12,7946,98,78,-30,139.65,0.06,-2.07,1
447,1768267357,260,10,7994,94,74,-25,139.65,0.08,-2.05,1
448,1768267357,286,-4,8002,100,78,-25,139.65,0.08,-2.06,1
449,1768267357,318,-2,8054,107,78,-28,139.65,0.09,-2.12,1
450,1768267357,260,10,7956,99,85,-26,139.65,0.11,-2.09,1
451,1768267357,276,-16,8008,99,80,-26,139.65,0.09,-2.09,1
452,1768267357,276,-26,7978,95,84,-26,139.65,0.05,-2.08,1
453,1768267357,242,-6,7932,102,83,-29,128.26,0.06,-2.04,1
454,1768267357,262,10,8024,99,79,-26,128.26,0.08,-2.02,1
455,1768267357,272,-32,8002,101,84,-27,128.26,0.05,-2.03,1
456,1768267357,272,-20,8018,100,85,-26,128.26,0.03,-2.03,1
457,1768267357,238,-12,8014,102,81,-21,128.26,0.03,-1.98,1
458,1768267357,270,-14,7940,99,79,-26,128.26,0.03,-1.99,1
459,1768267357,278,-24,7964,102,76,-24,128.26,0.01,-2.01,1
460,1768267357,276,6,7988,100,80,-28,128.26,0.04,-2.02,1
461,1768267357,208,14,8004,104,81,-21,128.26,0.08,-1.94,1
462,1768267357,272,-22,7968,101,85,-25,128.26,0.05,-1.96,1
463,1768267357,290,-36,7992,93,80,-25,128.26,0.01,-2.0,1
464,1768267357,254,12,7982,104,78,-18,128.26,0.05,-1.98,1
465,1768267357,252,4,8004,102,80,-24,128.26,0.07,-1.97,1
466,1768267357,290,-34,7992,102,83,-25,128.26,0.03,-2.01,1
467,1768267357,280,6,7990,98,78,-26,128.26,0.06,-2.03,1
468,1768267357,262,16,8000,103,80,-23,128.26,0.09,-2.01,1
469,1768267357,252,-22,7986,96,78,-26,128.26,0.07,-1.99,1
470,1768267357,268,-46,7948,98,79,-28,128.26,0.01,-2.0,1
471,1768267358,304,12,8034,100,77,-25,128.26,0.05,-2.05,1
472,1768267358,266,20,8076,104,82,-27,128.26,0.09,-2.04,1
473,1768267358,242,16,8018,100,81,-23,128.26,0.12,-1.99,1
474,1768267358,292,-32,7964,98,79,-19,128.26,0.07,-2.03,1
475,1768267358,292,-10,8058,102,77,-26,128.26,0.07,-2.06,1
476,1768267358,266,14,8004,103,81,-28,128.26,0.1,-2.05,1
477,1768267358,284,-4,7988,103,79,-28,128.26,0.1,-2.06,1
478,1768267358,260,-32,8022,101,77,-27,139.48,0.06,-2.04,1
479,1768267358,238,14,8014,101,81,-28,139.48,0.09,-1.99,1
480,1768267358,234,0,7992,102,79,-28,139.48,0.09,-1.95,1
481,1768267358,242,-34,8030,98,83,-27,139.48,0.05,-1.92,1
482,1768267358,328,-50,7994,97,79,-29,139.48,0.0,-2.03,1
483,1768267358,274,-8,8046,106,78,-19,139.48,0.01,-2.03,1
484,1768267358,244,-14,7984,103,84,-27,139.48,0.01,-1.99,1
485,1768267358,284,-46,8032,98,81,-25,139.48,-0.03,-2.02,1
486,1768267358,268,-56,8030,100,81,-28,139.48,-0.07,-2.02,1
487,1768267358,282,22,8036,107,82,-26,139.48,0.0,-2.03,1
488,1768267358,260,16,7956,101,82,-29,139.48,0.04,-2.02,1
489,1768267358,322,-52,8026,100,80,-27,139.48,-0.01,-2.09,1
490,1768267358,256,-12,8002,101,81,-26,139.48,0.0,-2.06,1
491,1768267358,266,10,7966,103,87,-26,139.48,0.03,-2.05,1
492,1768267358,262,-20,8002,105,83,-27,139.48,0.02,-2.04,1
493,1768267358,280,-78,7988,97,77,-29,139.48,-0.06,-2.05,1
494,1768267358,316,-6,7950,97,77,-24,139.48,-0.03,-2.11,1
495,1768267358,316,20,7984,98,82,-22,139.48,0.02,-2.16,1
496,1768267358,316,-30,8042,99,83,-23,139.48,0.0,-2.2,1
497,1768267358,276,-24,8006,96,82,-28,139.48,-0.01,-2.17,1
498,1768267358,264,-12,7984,103,78,-25,139.48,0.0,-2.13,1
499,1768267358,250,6,7990,105,77,-27,139.48,0.03,-2.08,1
500,1768267358,296,8,8018,101,79,-29,139.48,0.06,-2.11,1
