SampleIndex,Timestamp,Ax,Ay,Az,Gx,Gy,Gz,RMS,Pitch,Roll,StepCount
1,1768267278,-1568,152,7880,13,-4325,-1466,53.9,1.6,24.14,0
2,1768267278,-2710,986,10236,806,-823,-2236,53.9,2.54,22.48,0
3,1768267278,-5042,182,17220,567,-1700,-1883,-150.44,2.29,21.66,0
4,1768267278,-1660,-34,6932,-187,-2963,-1756,-150.44,1.73,20.74,1
5,1768267278,76,38,6518,-613,-6408,-1634,-150.44,1.3,18.03,1
6,1768267278,-598,182,9020,-2757,-10728,-1724,-150.44,0.6,17.8,1
7,1768267278,3298,-886,8910,462,-14932,-390,-150.44,-0.47,13.82,1
8,1768267278,-5054,-488,11766,330,-8718,-2605,-150.44,-0.73,17.84,1
9,1768267278,362,-930,8028,101,-555,-1185,-150.44,-1.88,13.89,1
10,1768267278,404,-62,8664,498,45,1574,-150.44,-1.46,10.56,1
11,1768267278,270,94,8022,33,-28,431,-150.44,-1.03,8.07,1
12,1768267278,176,-54,8020,-39,-9,25,-150.44,-0.91,6.21,1
13,1768267278,220,-32,7920,80,47,-13,-150.44,-0.75,4.63,1
14,1768267278,270,6,8070,175,71,-13,-150.44,-0.55,3.31,1
15,1768267278,270,-40,8060,72,60,-18,-150.44,-0.48,2.25,1
16,1768267278,356,28,7948,89,62,-27,-150.44,-0.32,1.27,1
17,1768267278,358,-2,7938,80,64,-15,-150.44,-0.24,0.48,1
18,1768267278,268,-18,8090,107,77,-14,-150.44,-0.19,0.0,1
19,1768267278,168,-6,8056,96,85,-16,-150.44,-0.13,-0.26,1
20,1768267278,228,10,7938,98,77,-23,-150.44,-0.07,-0.56,1
21,1768267279,310,26,7914,103,72,-24,-150.44,0.0,-0.91,1
22,1768267279,316,-10,7990,94,76,-23,-150.44,0.01,-1.2,1
23,1768267279,284,-50,8016,96,77,-27,-150.44,-0.03,-1.38,1
24,1768267279,322,-24,7960,100,80,-27,-150.44,-0.04,-1.59,1
25,1768267279,304,8,7956,107,76,-24,-150.44,0.0,-1.73,1
26,1768267279,256,-4,7984,97,83,-17,-150.44,0.02,-1.77,1
27,1768267279,214,16,8064,104,81,-22,-150.44,0.06,-1.74,1
28,1768267279,240,28,7998,102,81,-28,-216.62,0.11,-1.75,1
29,1768267279,350,-28,7934,101,75,-30,-216.62,0.07,-1.92,1
30,1768267279,324,18,7956,102,71,-35,-216.62,0.11,-2.02,1
31,1768267279,250,-22,8016,99,82,-24,-216.62,0.08,-1.99,1
32,1768267279,288,-46,7956,102,87,-21,-216.62,0.02,-2.03,1
33,1768267279,278,-78,7920,101,73,-26,-216.62,-0.06,-2.04,1
34,1768267279,242,-30,8040,102,78,-32,-216.62,-0.07,-2.0,1
35,1768267279,242,24,8066,99,79,-31,-216.62,0.0,-1.96,1
36,1768267279,302,48,8014,96,79,-24,-216.62,0.09,-2.02,1
37,1768267279,370,-8,7912,98,72,-20,-216.62,0.08,-2.17,1
38,1768267279,352,-52,7946,103,73,-23,-216.62,0.01,-2.26,1
39,1768267279,256,-8,8054,100,84,-29,-216.62,0.02,-2.19,1
40,1768267279,198,6,7984,103,82,-28,-216.62,0.05,-2.05,1
41,1768267279,298,-14,7936,101,75,-15,-216.62,0.04,-2.09,1
42,1768267279,278,-6,7934,97,73,-24,-216.62,0.05,-2.09,1
43,1768267279,250,-4,8058,98,80,-29,-216.62,0.06,-2.05,1
44,1768267279,244,8,8046,97,82,-30,-216.62,0.08,-2.0,1
45,1768267279,324,26,7968,100,85,-29,-216.62,0.12,-2.09,1
46,1768267279,350,10,7926,100,71,-26,-216.62,0.14,-2.19,1
47,1768267279,294,-10,7994,103,77,-21,-216.62,0.12,-2.19,1
48,1768267279,198,4,8026,100,82,-27,-216.62,0.13,-2.06,1
49,1768267279,268,22,7940,100,82,-31,-216.62,0.16,-2.05,1
50,1768267279,278,2,7948,101,71,-29,-216.62,0.15,-2.06,1
51,1768267279,298,-18,8022,104,77,-28,-216.62,0.12,-2.09,1
52,1768267279,224,10,8070,99,82,-25,-216.62,0.13,-2.01,1
53,1768267279,252,0,8016,97,80,-26,128.21,0.13,-1.99,1
54,1768267279,306,18,7920,99,80,-26,128.21,0.15,-2.05,1
55,1768267279,264,-30,8004,96,79,-24,128.21,0.1,-2.04,1
56,1768267279,182,8,8056,101,87,-24,128.21,0.12,-1.91,1
57,1768267279,262,-2,7978,102,83,-32,128.21,0.11,-1.92,1
58,1768267279,326,-4,7946,104,74,-27,128.21,0.11,-2.02,1
59,1768267279,300,-18,7982,101,78,-28,128.21,0.09,-2.07,1
60,1768267279,262,2,8026,102,78,-27,128.21,0.1,-2.05,1
61,1768267279,244,20,7992,105,85,-24,128.21,0.13,-2.01,1
62,1768267279,312,-56,7956,93,78,-21,128.21,0.04,-2.07,1
63,1768267279,288,22,7968,100,77,-25,128.21,0.09,-2.09,1
64,1768267279,244,12,7982,98,75,-31,128.21,0.11,-2.04,1
65,1768267279,258,-2,7980,97,84,-27,128.21,0.11,-2.02,1
66,1768267279,314,36,7936,98,81,-28,128.21,0.16,-2.09,1
67,1768267279,322,-6,7958,101,73,-27,128.21,0.15,-2.15,1
68,1768267279,266,-16,8066,99,86,-21,128.21,0.12,-2.12,1
69,1768267279,278,-46,7970,100,82,-29,128.21,0.05,-2.11,1
70,1768267279,278,-2,7978,101,80,-35,128.21,0.06,-2.11,1
71,1768267280,316,12,7964,104,76,-25,128.21,0.09,-2.16,1
72,1768267280,282,28,7998,103,70,-24,128.21,0.14,-2.15,1
73,1768267280,252,4,7954,104,85,-18,128.21,0.14,-2.1,1
74,1768267280,262,-2,7960,101,79,-23,128.21,0.13,-2.08,1
75,1768267280,300,8,7978,101,78,-33,128.21,0.14,-2.11,1
76,1768267280,284,-4,8024,99,82,-27,128.21,0.13,-2.11,1
77,1768267280,276,8,8014,102,81,-25,128.21,0.14,-2.1,1
78,1768267280,266,-62,7966,102,85,-28,122.91,0.05,-2.08,1
79,1768267280,304,-4,7924,98,74,-26,122.91,0.05,-2.12,1
80,1768267280,312,28,8006,104,78,-29,122.91,0.11,-2.16,1
81,1768267280,250,26,7986,111,81,-27,122.91,0.15,-2.11,1
82,1768267280,240,-32,7948,103,86,-24,122.91,0.1,-2.05,1
83,1768267280,296,-24,8000,101,75,-21,122.91,0.07,-2.08,1
84,1768267280,278,-18,8044,96,80,-28,122.91,0.05,-2.08,1
85,1768267280,230,12,8016,101,82,-29,122.91,0.08,-2.01,1
86,1768267280,292,-20,7990,96,83,-24,122.91,0.06,-2.05,1
87,1768267280,292,-42,7978,101,80,-26,122.91,0.01,-2.08,1
88,1768267280,294,24,7994,103,80,-27,122.91,0.07,-2.1,1
89,1768267280,234,16,8036,99,84,-26,122.91,0.1,-2.03,1
90,1768267280,260,40,7984,99,81,-25,122.91,0.16,-2.02,1
91,1768267280,272,20,8024,98,82,-25,122.91,0.18,-2.02,1
92,1768267280,288,-4,8002,102,81,-23,122.91,0.16,-2.05,1
93,1768267280,242,20,8056,104,84,-29,122.91,0.18,-2.0,1
94,1768267280,248,-8,8008,100,83,-29,122.91,0.16,-1.98,1
95,1768267280,292,-18,7972,93,80,-28,122.91,0.12,-2.02,1
96,1768267280,286,-16,7994,96,78,-28,122.91,0.1,-2.04,1
97,1768267280,252,0,8004,100,84,-25,122.91,0.1,-2.01,1
98,1768267280,264,42,7968,98,80,-26,122.91,0.16,-2.01,1
99,1768267280,244,10,7994,100,85,-25,122.91,0.17,-1.98,1
100,1768267280,272,8,7996,103,83,-24,122.91,0.17,-1.99,1
101,1768267280,216,-6,8014,104,78,-30,122.91,0.15,-1.92,1
102,1768267280,234,8,7964,100,83,-26,122.91,0.16,-1.89,1
103,1768267280,272,-30,7978,101,79,-29,135.44,0.11,-1.92,1
104,1768267280,312,20,8010,93,79,-24,135.44,0.14,-2.0,1
105,1768267280,280,16,8056,98,82,-29,135.44,0.15,-2.02,1
106,1768267280,262,16,8058,100,82,-28,135.44,0.17,-2.01,1
107,1768267280,270,2,7918,96,76,-28,135.44,0.16,-2.01,1
108,1768267280,264,-30,8004,99,77,-22,135.44,0.11,-2.01,1
109,1768267280,266,8,8038,99,79,-27,135.44,0.12,-2.0,1
110,1768267280,240,6,8030,100,80,-26,135.44,0.13,-1.96,1
111,1768267280,274,-8,7984,100,80,-32,135.44,0.12,-1.98,1
112,1768267280,310,-18,7986,94,80,-29,135.44,0.09,-2.05,1
113,1768267280,270,-36,7984,102,79,-25,135.44,0.04,-2.04,1
114,1768267280,270,14,7986,103,86,-27,135.44,0.08,-2.04,1
115,1768267280,284,2,7936,101,89,-25,135.44,0.09,-2.07,1
116,1768267280,288,10,7950,96,78,-27,135.44,0.11,-2.09,1
117,1768267280,294,-4,7992,102,85,-28,135.44,0.1,-2.11,1
118,1768267280,278,50,8006,102,81,-28,135.44,0.18,-2.1,1
119,1768267280,294,-2,7996,101,83,-28,135.44,0.16,-2.12,1
120,1768267280,290,-44,7936,99,80,-22,135.44,0.09,-2.14,1
121,1768267281,258,-48,8030,99,78,-21,135.44,0.03,-2.09,1
122,1768267281,262,48,7976,104,82,-25,135.44,0.12,-2.07,1
123,1768267281,274,18,7964,102,79,-29,135.44,0.14,-2.07,1
124,1768267281,288,-4,7990,98,79,-29,135.44,0.13,-2.09,1
125,1768267281,302,14,7976,100,77,-26,135.44,0.15,-2.12,1
126,1768267281,260,42,8036,103,80,-31,135.44,0.2,-2.09,1
127,1768267281,256,8,7990,104,82,-30,135.44,0.2,-2.05,1
128,1768267281,300,-26,7986,101,78,-25,133.36,0.14,-2.09,1
129,1768267281,280,-8,8024,99,77,-26,133.36,0.13,-2.09,1
130,1768267281,256,2,7998,103,80,-26,133.36,0.13,-2.06,1
131,1768267281,250,-18,7964,97,83,-27,133.36,0.1,-2.03,1
132,1768267281,294,-26,7950,99,80,-28,133.36,0.07,-2.06,1
133,1768267281,330,18,8052,98,78,-24,133.36,0.1,-2.14,1
134,1768267281,304,12,8016,100,82,-27,133.36,0.12,-2.16,1
135,1768267281,264,40,7998,103,81,-22,133.36,0.18,-2.13,1
136,1768267281,274,-4,7960,99,85,-28,133.36,0.16,-2.12,1
137,1768267281,280,0,7970,98,77,-26,133.36,0.15,-2.11,1
138,1768267281,246,14,8008,100,79,-24,133.36,0.16,-2.06,1
139,1768267281,274,38,8002,106,82,-23,133.36,0.21,-2.06,1
140,1768267281,272,-4,7982,97,77,-28,133.36,0.19,-2.06,1
141,1768267281,314,-4,7982,98,81,-27,133.36,0.17,-2.11,1
142,1768267281,256,4,8056,100,81,-25,133.36,0.16,-2.07,1
143,1768267281,246,14,7952,105,77,-24,133.36,0.17,-2.03,1
144,1768267281,294,16,7988,103,81,-22,133.36,0.19,-2.07,1
145,1768267281,266,-34,8024,101,81,-22,133.36,0.12,-2.05,1
146,1768267281,314,-68,8054,96,82,-24,133.36,0.03,-2.11,1
147,1768267281,280,28,7970,96,82,-26,133.36,0.08,-2.11,1
148,1768267281,334,8,7962,104,78,-29,133.36,0.1,-2.18,1
149,1768267281,276,-8,8012,100,79,-26,133.36,0.09,-2.16,1
150,1768267281,270,-2,8020,103,78,-31,133.36,0.1,-2.13,1
151,1768267281,306,38,8008,105,80,-26,133.36,0.16,-2.16,1
152,1768267281,268,-6,7992,99,80,-26,133.36,0.14,-2.13,1
153,1768267281,310,-12,7980,97,79,-29,137.75,0.12,-2.17,1
154,1768267281,286,-4,8002,98,76,-25,137.75,0.11,-2.16,1
155,1768267281,252,48,7994,103,83,-23,137.75,0.18,-2.11,1
156,1768267281,276,40,7976,100,88,-27,137.75,0.23,-2.1,1
157,1768267281,276,-24,7980,103,78,-28,137.75,0.17,-2.1,1
158,1768267281,286,6,8026,102,81,-28,137.75,0.17,-2.11,1
159,1768267281,250,24,8024,103,80,-26,137.75,0.19,-2.06,1
160,1768267281,284,-10,7994,105,80,-26,137.75,0.17,-2.07,1
161,1768267281,268,-4,7960,97,80,-19,137.75,0.15,-2.06,1
162,1768267281,290,-24,8006,102,83,-26,137.75,0.11,-2.08,1
163,1768267281,248,10,8020,101,79,-24,137.75,0.13,-2.04,1
164,1768267281,256,18,7982,105,81,-24,137.75,0.15,-2.02,1
165,1768267281,264,-4,8004,103,80,-26,137.75,0.14,-2.01,1
166,1768267281,300,-40,8036,91,79,-32,137.75,0.08,-2.05,1
167,1768267281,292,12,8062,99,78,-27,137.75,0.1,-2.08,1
168,1768267281,242,20,7982,103,81,-24,137.75,0.13,-2.03,1
169,1768267281,296,0,7956,105,80,-24,137.75,0.13,-2.07,1
170,1768267281,282,-24,8004,100,73,-27,137.75,0.09,-2.07,1
171,1768267282,300,-24,8002,105,89,-30,137.75,0.07,-2.11,1
172,1768267282,224,34,7934,106,88,-23,137.75,0.13,-2.03,1
173,1768267282,268,-4,7976,104,86,-27,137.75,0.12,-2.03,1
174,1768267282,312,-8,7998,96,81,-28,137.75,0.11,-2.09,1
175,1768267282,282,12,7986,101,83,-31,137.75,0.13,-2.1,1
176,1768267282,298,2,7996,97,81,-24,137.75,0.13,-2.12,1
177,1768267282,300,6,7980,96,85,-25,137.75,0.13,-2.15,1
178,1768267282,302,4,8002,102,87,-30,135.86,0.14,-2.17,1
179,1768267282,258,-10,7966,100,83,-25,135.86,0.12,-2.13,1
180,1768267282,266,28,7994,102,83,-21,135.86,0.16,-2.1,1
181,1768267282,238,-16,7954,99,79,-27,135.86,0.13,-2.04,1
182,1768267282,312,-16,8010,92,83,-26,135.86,0.1,-2.1,1
183,1768267282,302,-10,7984,100,80,-29,135.86,0.09,-2.13,1
184,1768267282,240,20,7992,101,85,-28,135.86,0.12,-2.07,1
185,1768267282,288,-14,7992,98,79,-22,135.86,0.1,-2.09,1
186,1768267282,268,-30,7968,97,87,-22,135.86,0.06,-2.07,1
187,1768267282,244,4,8082,97,80,-28,135.86,0.08,-2.02,1
188,1768267282,232,30,8018,101,87,-24,135.86,0.13,-1.97,1
189,1768267282,242,40,7996,103,83,-21,135.86,0.18,-1.94,1
190,1768267282,302,-18,8040,102,75,-20,135.86,0.15,-2.0,1
191,1768267282,284,-16,8024,95,78,-31,135.86,0.12,-2.02,1
192,1768267282,280,18,8014,103,80,-31,135.86,0.14,-2.04,1
193,1768267282,254,36,7988,101,82,-31,135.86,0.19,-2.01,1
194,1768267282,250,-48,8036,92,76,-25,135.86,0.1,-1.99,1
195,1768267282,250,-34,8058,94,73,-25,135.86,0.06,-1.96,1
196,1768267282,224,-22,8020,100,79,-22,135.86,0.04,-1.91,1
197,1768267282,232,38,7938,102,80,-29,135.86,0.11,-1.88,1
198,1768267282,292,28,7962,97,79,-25,135.86,0.15,-1.94,1
199,1768267282,306,16,8052,98,77,-26,135.86,0.17,-2.01,1
200,1768267282,272,28,8016,101,83,-27,135.86,0.2,-2.01,1
201,1768267282,240,-10,8000,103,81,-27,135.86,0.17,-1.97,1
202,1768267282,258,-50,7946,95,82,-31,135.86,0.08,-1.97,1
203,1768267282,318,-58,7972,95,81,-31,141.16,0.01,-2.05,1
204,1768267282,258,0,8016,97,77,-27,141.16,0.03,-2.03,1
205,1768267282,298,30,7982,101,77,-22,141.16,0.09,-2.07,1
206,1768267282,320,16,8018,94,83,-29,141.16,0.12,-2.13,1
207,1768267282,302,20,7988,101,82,-28,141.16,0.14,-2.16,1
208,1768267282,264,28,8056,99,79,-36,141.16,0.18,-2.12,1
209,1768267282,232,30,7992,103,82,-29,141.16,0.21,-2.05,1
210,1768267282,266,-10,8006,97,76,-22,141.16,0.18,-2.04,1
211,1768267282,312,-24,7968,96,75,-26,141.16,0.13,-2.09,1
212,1768267282,234,24,8136,103,85,-29,141.16,0.16,-2.02,1
213,1768267282,294,4,7976,96,83,-28,141.16,0.16,-2.06,1
214,1768267282,350,64,7968,98,81,-31,141.16,0.24,-2.17,1
215,1768267282,338,-4,8040,97,81,-26,141.16,0.21,-2.24,1
216,1768267282,300,-12,8090,98,80,-24,141.16,0.17,-2.23,1
217,1768267282,270,10,7976,102,78,-27,141.16,0.18,-2.19,1
218,1768267282,298,12,8066,100,74,-25,141.16,0.18,-2.19,1
219,1768267282,248,-38,8026,96,73,-23,141.16,0.11,-2.13,1
220,1768267282,286,16,7960,102,79,-25,141.16,0.14,-2.13,1
221,1768267283,258,2,7952,104,81,-19,141.16,0.14,-2.09,1
222,1768267283,280,-20,8008,108,80,-27,141.16,0.11,-2.09,1
223,1768267283,294,30,8036,98,77,-32,141.16,0.15,-2.11,1
224,1768267283,292,6,8026,98,76,-25,141.16,0.15,-2.12,1
225,1768267283,286,8,7992,102,77,-19,141.16,0.16,-2.13,1
226,1768267283,268,12,8002,96,79,-19,141.16,0.17,-2.1,1
227,1768267283,272,-22,8044,100,75,-28,141.16,0.12,-2.09,1
228,1768267283,282,-22,8000,101,75,-33,153.86,0.09,-2.09,1
229,1768267283,258,34,7978,102,74,-30,153.86,0.15,-2.06,1
230,1768267283,310,22,7926,103,79,-28,153.86,0.17,-2.11,1
231,1768267283,298,-40,8026,99,81,-26,153.86,0.1,-2.14,1
232,1768267283,322,-20,8082,97,78,-23,153.86,0.08,-2.18,1
233,1768267283,190,-4,8000,103,76,-29,153.86,0.08,-2.04,1
234,1768267283,0,56,8122,102,70,-26,153.86,0.17,-1.64,1
235,1768267283,268,28,8064,102,80,-26,153.86,0.2,-1.72,1
236,1768267283,270,-14,8196,106,73,-25,153.86,0.16,-1.77,1
237,1768267283,340,-50,7988,95,72,-28,153.86,0.08,-1.92,1
238,1768267283,326,-8,7836,95,69,-38,153.86,0.08,-2.03,1
239,1768267283,246,86,8124,98,89,-27,153.86,0.2,-1.99,1
240,1768267283,334,-18,8034,95,83,-22,153.86,0.16,-2.09,1
241,1768267283,358,14,7844,104,76,-17,153.86,0.17,-2.21,1
242,1768267283,142,-58,8106,101,81,-34,153.86,0.08,-1.99,1
243,1768267283,358,4,7860,99,75,-32,153.86,0.09,-2.13,1
244,1768267283,404,72,7926,92,75,-25,153.86,0.2,-2.3,1
245,1768267283,206,56,8078,103,80,-19,153.86,0.26,-2.15,1
246,1768267283,432,22,7838,103,70,-26,153.86,0.27,-2.37,1
247,1768267283,-168,-10,8348,106,98,-33,153.86,0.22,-1.69,1
248,1768267283,912,40,7496,106,62,-37,153.86,0.27,-2.75,1
249,1768267283,130,58,8146,102,82,-26,153.86,0.32,-2.4,1
250,1768267283,716,-20,7246,97,66,-18,153.86,0.25,-3.07,1
251,1768267283,304,-114,7940,100,75,-28,153.86,0.06,-2.91,1
252,1768267283,780,112,7446,107,64,-31,153.86,0.24,-3.54,1
253,1768267283,138,76,8198,102,82,-31,102.77,0.32,-3.04,1
254,1768267283,132,12,8190,102,80,-23,102.77,0.3,-2.64,1
255,1768267283,440,32,8052,99,76,-15,102.77,0.31,-2.75,1
256,1768267283,292,4,8136,101,68,-28,102.77,0.28,-2.63,1
257,1768267283,1072,194,7690,260,124,-69,102.77,0.57,-3.72,1
258,1768267283,288,62,8156,-157,-33,-48,102.77,0.5,-3.37,1
259,1768267283,240,-50,7936,194,161,-961,102.77,0.38,-3.08,1
260,1768267283,642,-144,7422,-108,-1,-469,102.77,0.05,-3.45,1
261,1768267283,160,-434,8002,82,75,-61,102.77,-0.55,-3.01,1
262,1768267283,314,-156,7864,45,60,-33,102.77,-0.65,-2.88,1
263,1768267283,478,-34,7836,127,87,-30,102.77,-0.54,-3.02,1
264,1768267283,338,48,7928,100,82,-26,102.77,-0.34,-2.92,1
265,1768267283,318,-20,7966,83,69,-25,102.77,-0.28,-2.81,1
266,1768267283,300,24,8028,121,95,-31,102.77,-0.16,-2.7,1
267,1768267283,224,96,8038,124,87,-27,102.77,0.03,-2.5,1
268,1768267283,314,6,7992,96,81,-28,102.77,0.06,-2.47,1
269,1768267283,304,-24,7944,104,84,-24,102.77,0.04,-2.43,1
270,1768267283,262,-14,7982,97,86,-29,102.77,0.03,-2.34,1
271,1768267284,212,-10,8020,101,83,-29,102.77,0.03,-2.2,1
272,1768267284,278,24,8004,97,75,-31,102.77,0.08,-2.17,1
273,1768267284,286,38,7982,101,79,-30,102.77,0.15,-2.17,1
274,1768267284,298,16,7970,99,80,-27,102.77,0.16,-2.18,1
275,1768267284,304,-18,7962,101,81,-23,102.77,0.13,-2.2,1
276,1768267284,274,-10,7992,98,79,-24,102.77,0.11,-2.17,1
277,1768267284,254,-16,8014,102,82,-32,102.77,0.09,-2.12,1
278,1768267284,212,-26,8012,101,81,-27,111.38,0.06,-2.02,1
279,1768267284,248,-24,7972,100,76,-27,111.38,0.04,-1.99,1
280,1768267284,284,-18,8024,95,80,-31,111.38,0.02,-2.01,1
281,1768267284,332,-10,8000,100,74,-29,111.38,0.03,-2.1,1
282,1768267284,408,50,8204,105,85,-26,111.38,0.12,-2.27,1
283,1768267284,360,52,7970,100,82,-25,111.38,0.19,-2.35,1
284,1768267284,322,-28,7878,93,82,-26,111.38,0.13,-2.37,1
285,1768267284,222,-20,7914,94,82,-29,111.38,0.1,-2.24,1
286,1768267284,200,10,7974,106,79,-27,111.38,0.12,-2.09,1
287,1768267284,280,-16,7988,104,81,-30,111.38,0.1,-2.1,1
288,1768267284,282,20,8040,107,79,-24,111.38,0.13,-2.1,1
289,1768267284,310,12,8022,103,82,-25,111.38,0.15,-2.14,1
290,1768267284,278,-12,8020,102,78,-26,111.38,0.12,-2.13,1
291,1768267284,272,-40,7968,99,80,-29,111.38,0.06,-2.11,1
292,1768267284,260,-60,7992,98,76,-29,111.38,0.0,-2.08,1
293,1768267284,208,-14,8066,104,80,-26,111.38,0.0,-1.98,1
294,1768267284,282,-44,8012,103,82,-34,111.38,-0.03,-2.0,1
295,1768267284,284,-22,8002,100,83,-31,111.38,-0.03,-2.03,1
296,1768267284,286,22,8058,97,82,-27,111.38,0.02,-2.05,1
297,1768267284,282,34,8052,105,83,-28,111.38,0.09,-2.06,1
298,1768267284,298,40,7958,101,80,-26,111.38,0.15,-2.09,1
299,1768267284,274,-24,8040,106,79,-27,111.38,0.11,-2.08,1
300,1768267284,182,-22,8266,103,82,-31,111.38,0.08,-1.94,1
301,1768267284,252,-26,8048,97,83,-31,111.38,0.05,-1.93,1
302,1768267284,286,-14,7980,99,79,-32,111.38,0.05,-1.97,1
303,1768267284,306,-30,8056,104,83,-24,161.29,0.02,-2.03,1
304,1768267284,182,10,7998,101,76,-26,161.29,0.05,-1.9,1
305,1768267284,228,28,7902,98,77,-29,161.29,0.11,-1.87,1
306,1768267284,398,40,7792,102,83,-29,161.29,0.17,-2.1,1
307,1768267284,412,14,7782,100,80,-22,161.29,0.18,-2.31,1
308,1768267284,238,-20,7988,99,77,-25,161.29,0.14,-2.2,1
309,1768267284,324,-32,7966,94,80,-32,161.29,0.09,-2.25,1
310,1768267284,346,10,7980,97,77,-25,161.29,0.11,-2.31,1
311,1768267284,260,-46,7992,97,78,-25,161.29,0.04,-2.24,1
312,1768267284,316,-64,7976,99,85,-27,161.29,-0.03,-2.27,1
313,1768267284,356,12,7938,103,85,-30,161.29,0.01,-2.35,1
314,1768267284,280,34,7948,105,82,-29,161.29,0.08,-2.3,1
315,1768267284,292,-10,7982,94,83,-21,161.29,0.07,-2.28,1
316,1768267284,226,8,7970,101,85,-26,161.29,0.09,-2.17,1
317,1768267284,224,-30,8012,101,81,-33,161.29,0.06,-2.07,1
318,1768267284,282,-60,7960,96,83,-40,161.29,-0.01,-2.08,1
319,1768267284,304,-60,7962,96,77,-39,161.29,-0.07,-2.12,1
320,1768267284,326,-2,8024,101,79,-41,161.29,-0.03,-2.18,1
321,1768267285,384,-22,7972,102,82,-29,161.29,-0.03,-2.32,1
322,1768267285,430,-40,7948,96,88,-19,161.29,-0.06,-2.49,1
323,1768267285,318,10,8000,100,89,-20,161.29,-0.01,-2.47,1
324,1768267285,222,20,7998,110,92,-18,161.29,0.04,-2.32,1
325,1768267285,108,-2,8040,98,95,-20,161.29,0.05,-2.03,1
326,1768267285,162,16,8030,101,87,-28,161.29,0.09,-1.87,1
327,1768267285,234,24,7964,99,84,-27,161.29,0.13,-1.86,1
328,1768267285,278,14,8116,94,83,-39,111.1,0.14,-1.9,1
329,1768267285,284,-54,7924,88,114,-41,111.1,0.06,-1.95,1
330,1768267285,310,-42,8036,105,81,-39,111.1,0.01,-2.02,1
331,1768267285,270,18,8028,109,72,-41,111.1,0.06,-2.02,1
332,1768267285,228,32,8070,100,74,-34,111.1,0.12,-1.96,1
333,1768267285,288,10,8024,99,75,-28,111.1,0.13,-1.99,1
334,1768267285,292,-26,7982,95,84,-30,111.1,0.09,-2.03,1
335,1768267285,342,-52,8014,101,77,-32,111.1,0.02,-2.13,1
336,1768267285,324,-80,7986,93,76,-42,111.1,-0.07,-2.19,1
337,1768267285,308,-8,7998,107,73,-41,111.1,-0.04,-2.21,1
338,1768267285,326,28,7988,99,79,-38,111.1,0.03,-2.25,1
339,1768267285,324,92,8068,99,83,-24,111.1,0.17,-2.28,1
340,1768267285,250,70,8034,104,84,-22,111.1,0.26,-2.2,1
341,1768267285,272,-4,7902,97,86,-21,111.1,0.23,-2.18,1
342,1768267285,212,-4,8014,101,88,-26,111.1,0.2,-2.06,1
343,1768267285,270,40,8018,98,92,-31,111.1,0.24,-2.06,1
344,1768267285,346,-44,8006,98,92,-26,111.1,0.15,-2.16,1
345,1768267285,320,-92,7998,99,92,-26,111.1,0.01,-2.21,1
346,1768267285,206,-4,7990,105,89,-28,111.1,0.03,-2.08,1
347,1768267285,250,12,7970,101,95,-29,111.1,0.06,-2.05,1
348,1768267285,332,-10,7976,94,87,-32,111.1,0.06,-2.14,1
349,1768267285,316,34,7998,100,85,-32,111.1,0.12,-2.18,1
350,1768267285,246,40,7980,98,89,-26,111.1,0.18,-2.12,1
351,1768267285,270,-68,7986,102,95,-24,111.1,0.07,-2.1,1
352,1768267285,276,-26,8018,99,86,-28,111.1,0.04,-2.1,1
353,1768267285,254,-20,7976,105,85,-29,140.4,0.03,-2.06,1
354,1768267285,288,-14,8034,102,92,-37,140.4,0.03,-2.08,1
355,1768267285,270,2,7958,100,89,-32,140.4,0.05,-2.08,1
356,1768267285,246,46,8076,100,88,-28,140.4,0.13,-2.03,1
357,1768267285,296,-20,7994,104,82,-27,140.4,0.1,-2.07,1
358,1768267285,268,0,7998,100,88,-31,140.4,0.1,-2.06,1
359,1768267285,272,-10,8058,101,97,-26,140.4,0.09,-2.06,1
360,1768267285,278,-16,7946,98,91,-32,140.4,0.07,-2.07,1
361,1768267285,274,40,8020,103,87,-33,140.4,0.14,-2.06,1
362,1768267285,264,-22,8010,104,89,-32,140.4,0.1,-2.05,1
363,1768267285,294,-12,8010,103,93,-33,140.4,0.09,-2.08,1
364,1768267285,386,52,7742,103,99,-34,140.4,0.17,-2.26,1
365,1768267285,244,16,8002,100,93,-30,140.4,0.18,-2.18,1
366,1768267285,262,44,8048,104,94,-32,140.4,0.23,-2.14,1
367,1768267285,250,38,8020,98,89,-30,140.4,0.27,-2.09,1
368,1768267285,260,46,7960,97,88,-33,140.4,0.3,-2.07,1
369,1768267285,272,-18,8040,99,87,-30,140.4,0.24,-2.06,1
370,1768267285,256,0,7998,102,86,-27,140.4,0.21,-2.03,1
371,1768267286,262,-22,7966,100,89,-28,140.4,0.16,-2.03,1
372,1768267286,266,-48,7994,95,90,-30,140.4,0.08,-2.02,1
373,1768267286,266,14,8044,103,91,-28,140.4,0.11,-2.02,1
374,1768267286,242,4,7948,97,93,-29,140.4,0.12,-1.98,1
375,1768267286,266,-12,8022,100,87,-31,140.4,0.1,-1.99,1
376,1768267286,280,22,8070,104,89,-25,140.4,0.14,-2.01,1
377,1768267286,234,8,7914,97,87,-22,140.4,0.14,-1.97,1
378,1768267286,266,-10,8042,101,91,-29,137.17,0.12,-1.97,1
379,1768267286,284,-6,7968,103,87,-26,137.17,0.11,-2.01,1
380,1768267286,250,10,8018,102,85,-23,137.17,0.13,-1.98,1
381,1768267286,248,-2,8012,100,91,-27,137.17,0.12,-1.96,1
382,1768267286,260,-30,8028,98,87,-27,137.17,0.08,-1.96,1
383,1768267286,266,-8,8016,99,92,-28,137.17,0.08,-1.97,1
384,1768267286,266,-52,7928,96,88,-31,137.17,0.01,-1.98,1
385,1768267286,310,12,7974,103,92,-31,137.17,0.05,-2.05,1
386,1768267286,234,-20,7968,101,94,-24,137.17,0.03,-2.0,1
387,1768267286,294,-32,8006,97,87,-28,137.17,0.0,-2.04,1
388,1768267286,294,-46,7968,102,91,-26,137.17,-0.03,-2.08,1
389,1768267286,258,-10,7986,102,94,-27,137.17,-0.01,-2.05,1
390,1768267286,234,14,8008,105,92,-28,137.17,0.03,-2.0,1
391,1768267286,240,-10,7994,104,89,-30,137.17,0.03,-1.96,1
392,1768267286,260,-32,8004,101,89,-27,137.17,0.0,-1.96,1
393,1768267286,282,-60,7974,102,91,-21,137.17,-0.05,-2.0,1
394,1768267286,278,0,8026,104,99,-30,137.17,-0.01,-2.02,1
395,1768267286,252,-48,7944,99,90,-33,137.17,-0.05,-2.0,1
396,1768267286,266,48,8044,102,93,-21,137.17,0.04,-2.0,1
397,1768267286,220,30,7976,102,94,-25,137.17,0.1,-1.94,1
398,1768267286,286,-22,7982,99,91,-28,137.17,0.07,-1.98,1
399,1768267286,252,30,8022,103,91,-24,137.17,0.12,-1.97,1
400,1768267286,274,-6,7958,99,93,-28,137.17,0.11,-1.99,1
401,1768267286,258,-14,7990,96,81,-24,137.17,0.09,-1.98,1
402,1768267286,276,2,7992,105,83,-25,137.17,0.1,-2.0,1
403,1768267286,256,-6,7956,101,84,-29,129.84,0.1,-1.99,1
404,1768267286,226,-10,8030,99,77,-25,129.84,0.09,-1.93,1
405,1768267286,256,-2,7998,104,79,-27,129.84,0.09,-1.93,1
406,1768267286,258,8,8006,100,85,-23,129.84,0.11,-1.93,1
407,1768267286,256,-42,8010,97,87,-22,129.84,0.05,-1.93,1
408,1768267286,280,8,8014,100,79,-24,129.84,0.07,-1.96,1
409,1768267286,292,-46,7974,97,75,-25,129.84,0.02,-2.01,1
410,1768267286,228,-26,8004,97,79,-23,129.84,0.0,-1.95,1
411,1768267286,256,-30,7960,102,77,-23,129.84,-0.01,-1.95,1
412,1768267286,274,-2,8022,103,81,-24,129.84,0.0,-1.97,1
413,1768267286,234,-10,8012,105,83,-24,129.84,0.01,-1.93,1
414,1768267286,272,-20,7992,103,85,-26,129.84,0.01,-1.95,1
415,1768267286,196,14,8088,100,78,-23,129.84,0.05,-1.86,1
416,1768267286,260,-8,7938,103,86,-30,129.84,0.05,-1.88,1
417,1768267286,264,-54,8026,100,82,-29,129.84,0.0,-1.9,1
418,1768267286,238,18,7982,103,76,-25,129.84,0.04,-1.88,1
419,1768267286,236,12,8006,102,84,-27,129.84,0.07,-1.86,1
420,1768267286,250,-40,7990,93,84,-33,129.84,0.02,-1.87,1
421,1768267287,214,34,8040,108,80,-30,129.84,0.09,-1.82,1
422,1768267287,252,8,7924,104,80,-25,129.84,0.11,-1.84,1
423,1768267287,252,-24,7986,99,77,-24,129.84,0.08,-1.85,1
424,1768267287,228,16,8006,105,84,-27,129.84,0.11,-1.82,1
425,1768267287,338,-16,7968,98,81,-26,129.84,0.09,-1.96,1
426,1768267287,252,-18,8000,97,80,-29,129.84,0.07,-1.95,1
427,1768267287,214,18,8050,100,80,-28,129.84,0.1,-1.88,1
428,1768267287,212,10,7918,96,82,-31,137.5,0.12,-1.83,1
429,1768267287,280,-28,8022,101,83,-28,137.5,0.08,-1.89,1
430,1768267287,244,26,8012,101,83,-26,137.5,0.12,-1.88,1
431,1768267287,270,6,8052,99,80,-29,137.5,0.13,-1.9,1
432,1768267287,240,20,8010,103,83,-28,137.5,0.16,-1.89,1
433,1768267287,266,20,8004,95,80,-28,137.5,0.18,-1.91,1
434,1768267287,250,2,7988,102,82,-28,137.5,0.17,-1.9,1
435,1768267287,234,-24,7950,97,90,-30,137.5,0.12,-1.88,1
436,1768267287,242,-38,8046,99,81,-30,137.5,0.07,-1.87,1
437,1768267287,246,18,8054,98,84,-23,137.5,0.1,-1.86,1
438,1768267287,280,10,7944,99,89,-27,137.5,0.12,-1.92,1
439,1768267287,268,-14,8054,100,81,-26,137.5,0.1,-1.93,1
440,1768267287,240,30,8056,100,83,-24,137.5,0.15,-1.91,1
441,1768267287,282,-52,7954,98,77,-23,137.5,0.06,-1.95,1
442,1768267287,234,-18,8032,103,79,-27,137.5,0.05,-1.91,1
443,1768267287,254,8,7940,107,83,-25,137.5,0.08,-1.91,1
444,1768267287,266,-2,7998,100,77,-27,137.5,0.08,-1.93,1
445,1768267287,250,6,8008,103,76,-23,137.5,0.1,-1.92,1
446,1768267287,264,-8,7986,97,86,-28,137.5,0.09,-1.93,1
447,1768267287,284,24,8062,98,82,-28,137.5,0.13,-1.97,1
448,1768267287,218,20,8030,98,86,-27,137.5,0.15,-1.91,1
449,1768267287,272,12,8042,96,82,-25,137.5,0.16,-1.93,1
450,1768267287,228,-2,8020,99,82,-26,137.5,0.15,-1.89,1
451,1768267287,248,-32,7942,102,85,-26,137.5,0.1,-1.89,1
452,1768267287,302,4,7966,96,82,-29,137.5,0.11,-1.97,1
453,1768267287,230,0,8054,99,79,-25,148.95,0.11,-1.92,1
454,1768267287,270,-8,8002,100,81,-30,148.95,0.1,-1.94,1
455,1768267287,246,-14,8014,96,83,-27,148.95,0.08,-1.92,1
456,1768267287,238,18,8002,101,88,-25,148.95,0.11,-1.9,1
457,1768267287,228,-30,7986,101,82,-30,148.95,0.07,-1.87,1
458,1768267287,260,-22,8012,100,83,-24,148.95,0.05,-1.88,1
459,1768267287,232,4,8022,102,82,-25,148.95,0.07,-1.86,1
460,1768267287,266,8,7984,96,80,-26,148.95,0.09,-1.89,1
461,1768267287,306,4,7920,100,76,-24,148.95,0.1,-1.97,1
462,1768267287,238,16,7970,101,79,-28,148.95,0.13,-1.94,1
463,1768267287,252,-16,8068,94,76,-23,148.95,0.1,-1.92,1
464,1768267287,262,-24,8036,104,77,-21,148.95,0.07,-1.93,1
465,1768267287,268,6,7940,98,79,-24,148.95,0.09,-1.95,1
466,1768267287,258,6,7994,92,79,-25,148.95,0.1,-1.95,1
467,1768267287,248,30,7998,101,80,-26,148.95,0.15,-1.93,1
468,1768267287,264,30,8050,102,79,-28,148.95,0.18,-1.94,1
469,1768267287,282,-4,8026,100,75,-25,148.95,0.17,-1.97,1
470,1768267287,258,-8,7984,105,79,-26,148.95,0.15,-1.97,1
471,1768267288,254,-32,8020,97,78,-27,148.95,0.09,-1.95,1
472,1768267288,244,-10,8038,101,76,-26,148.95,0.08,-1.93,1
473,1768267288,254,0,7988,102,79,-25,148.95,0.09,-1.92,1
474,1768267288,246,-4,8010,94,79,-22,148.95,0.09,-1.91,1
475,1768267288,262,14,8048,96,80,-29,148.95,0.11,-1.92,1
476,1768267288,254,-28,7998,97,83,-30,148.95,0.07,-1.92,1
477,1768267288,246,-8,8044,101,80,-28,148.95,0.07,-1.9,1
478,1768267288,210,-22,8008,97,83,-26,146.29,0.05,-1.84,1
479,1768267288,270,-16,7994,94,77,-27,146.29,0.04,-1.88,1
480,1768267288,226,6,8028,97,78,-27,146.29,0.06,-1.84,1
481,1768267288,240,16,8004,103,84,-23,146.29,0.1,-1.84,1
482,1768267288,230,-40,7988,99,84,-21,146.29,0.04,-1.82,1
483,1768267288,252,-20,8006,102,80,-26,146.29,0.03,-1.83,1
484,1768267288,254,-10,8016,103,80,-31,146.29,0.03,-1.85,1
485,1768267288,242,20,8000,100,82,-24,146.29,0.08,-1.85,1
486,1768267288,274,-30,7974,97,77,-23,146.29,0.04,-1.89,1
487,1768267288,230,-4,8044,99,79,-27,146.29,0.05,-1.86,1
488,1768267288,264,-52,7970,101,79,-23,146.29,0.0,-1.88,1
489,1768267288,232,-16,8044,98,79,-28,146.29,0.0,-1.85,1
490,1768267288,246,-30,7968,98,86,-21,146.29,-0.02,-1.86,1
491,1768267288,280,-22,8028,96,81,-28,146.29,-0.02,-1.9,1
492,1768267288,260,-4,8006,100,84,-27,146.29,0.0,-1.91,1
493,1768267288,276,12,7988,102,84,-30,146.29,0.04,-1.95,1
494,1768267288,238,26,7960,99,78,-23,146.29,0.09,-1.92,1
495,1768267288,262,10,8020,103,81,-26,146.29,0.11,-1.93,1
496,1768267288,270,-2,7982,101,81,-29,146.29,0.11,-1.95,1
497,1768267288,268,-34,8010,97,74,-28,146.29,0.06,-1.96,1
498,1768267288,250,36,8044,100,80,-29,146.29,0.12,-1.94,1
499,1768267288,238,2,8010,97,82,-28,146.29,0.12,-1.91,1
500,1768267288,252,0,7974,95,75,-26,146.29,0.12,-1.91,1
