SampleIndex,Timestamp,Ax,Ay,Az,Gx,Gy,Gz,RMS,Pitch,Roll,StepCount
1,1768267288,266,-12,8012,106,79,-31,146.29,0.11,-1.93,1
2,1768267288,264,-18,7954,99,81,-24,146.29,0.08,-1.94,1
3,1768267288,246,-12,8004,96,83,-25,140.89,0.07,-1.92,1
4,1768267288,250,-6,8034,101,82,-31,140.89,0.07,-1.91,1
5,1768267288,244,-24,7966,102,83,-29,140.89,0.05,-1.9,1
6,1768267288,274,8,8002,100,76,-27,140.89,0.07,-1.93,1
7,1768267288,268,-8,8000,105,81,-26,140.89,0.07,-1.95,1
8,1768267288,274,-16,7954,99,80,-27,140.89,0.06,-1.97,1
9,1768267288,270,-4,7978,101,81,-26,140.89,0.06,-1.98,1
10,1768267288,258,8,8038,104,86,-24,140.89,0.09,-1.97,1
11,1768267288,276,-42,7962,99,79,-26,140.89,0.03,-1.99,1
12,1768267288,262,6,8072,103,83,-25,140.89,0.06,-1.99,1
13,1768267288,216,-8,8002,104,84,-30,140.89,0.06,-1.92,1
14,1768267288,254,-20,8002,97,85,-28,140.89,0.04,-1.92,1
15,1768267288,238,-4,8008,97,82,-22,140.89,0.05,-1.89,1
16,1768267288,214,26,8000,102,81,-31,140.89,0.1,-1.84,1
17,1768267288,260,-36,7980,96,81,-25,140.89,0.05,-1.86,1
18,1768267288,284,8,8030,96,78,-29,140.89,0.08,-1.91,1
19,1768267288,218,-14,7992,96,90,-29,140.89,0.06,-1.87,1
20,1768267288,260,-10,7974,93,79,-27,140.89,0.06,-1.88,1
21,1768267289,252,-26,8038,98,82,-26,140.89,0.03,-1.89,1
22,1768267289,248,14,7966,96,83,-23,140.89,0.07,-1.88,1
23,1768267289,262,-20,8008,103,80,-27,140.89,0.05,-1.9,1
24,1768267289,262,14,7978,105,78,-27,140.89,0.08,-1.91,1
25,1768267289,258,16,7992,105,78,-25,140.89,0.12,-1.92,1
26,1768267289,254,-6,7898,98,77,-25,140.89,0.11,-1.92,1
27,1768267289,250,-10,7996,101,78,-26,140.89,0.09,-1.91,1
28,1768267289,254,38,7944,100,81,-22,132.4,0.15,-1.92,1
29,1768267289,258,16,8026,99,85,-23,132.4,0.17,-1.92,1
30,1768267289,242,-22,8066,98,83,-27,132.4,0.13,-1.9,1
31,1768267289,232,-8,8024,102,85,-26,132.4,0.11,-1.87,1
32,1768267289,254,24,7956,102,84,-31,132.4,0.15,-1.88,1
33,1768267289,258,36,8004,100,78,-27,132.4,0.19,-1.89,1
34,1768267289,240,32,8028,97,81,-25,132.4,0.22,-1.88,1
35,1768267289,242,-12,7962,99,79,-24,132.4,0.19,-1.87,1
36,1768267289,240,-58,7994,97,75,-26,132.4,0.09,-1.85,1
37,1768267289,224,12,8008,104,84,-29,132.4,0.11,-1.82,1
38,1768267289,210,10,7976,99,81,-30,132.4,0.13,-1.78,1
39,1768267289,256,-2,7992,97,84,-22,132.4,0.12,-1.81,1
40,1768267289,224,6,8050,99,84,-26,132.4,0.13,-1.79,1
41,1768267289,242,26,8022,99,83,-25,132.4,0.16,-1.79,1
42,1768267289,264,-42,7948,96,80,-28,132.4,0.09,-1.83,1
43,1768267289,224,42,7990,98,79,-26,132.4,0.16,-1.81,1
44,1768267289,226,44,7970,106,87,-24,132.4,0.21,-1.79,1
45,1768267289,268,-56,7994,91,82,-26,132.4,0.11,-1.84,1
46,1768267289,256,-38,8012,103,83,-27,132.4,0.06,-1.85,1
47,1768267289,236,18,7986,102,84,-28,132.4,0.1,-1.84,1
48,1768267289,252,-34,7966,99,81,-25,132.4,0.05,-1.85,1
49,1768267289,242,28,8068,99,80,-26,132.4,0.1,-1.85,1
50,1768267289,216,12,8016,99,84,-24,132.4,0.12,-1.8,1
51,1768267289,256,-40,7976,98,80,-22,132.4,0.06,-1.83,1
52,1768267289,232,-12,8008,97,78,-24,132.4,0.06,-1.81,1
53,1768267289,240,32,7984,101,80,-27,140.49,0.12,-1.81,1
54,1768267289,272,-18,7940,96,77,-25,140.49,0.09,-1.86,1
55,1768267289,252,-20,8004,102,84,-25,140.49,0.07,-1.87,1
56,1768267289,236,24,8004,104,85,-27,140.49,0.11,-1.85,1
57,1768267289,238,-16,7952,100,83,-27,140.49,0.09,-1.84,1
58,1768267289,244,-34,7990,95,79,-25,140.49,0.05,-1.84,1
59,1768267289,262,-2,7990,102,77,-27,140.49,0.06,-1.87,1
60,1768267289,240,16,7970,103,79,-28,140.49,0.09,-1.86,1
61,1768267289,230,-26,8018,99,81,-26,140.49,0.06,-1.83,1
62,1768267289,270,20,7996,98,84,-28,140.49,0.1,-1.87,1
63,1768267289,288,18,8032,100,84,-29,140.49,0.13,-1.93,1
64,1768267289,258,-4,7986,99,78,-30,140.49,0.12,-1.93,1
65,1768267289,258,8,7964,98,78,-29,140.49,0.13,-1.93,1
66,1768267289,260,-60,8000,101,79,-26,140.49,0.04,-1.94,1
67,1768267289,246,4,8004,97,77,-29,140.49,0.06,-1.92,1
68,1768267289,236,2,8000,97,81,-27,140.49,0.08,-1.89,1
69,1768267289,232,-10,7990,102,79,-25,140.49,0.07,-1.87,1
70,1768267289,242,18,8000,101,77,-23,140.49,0.11,-1.86,1
71,1768267290,260,-32,7994,103,83,-22,140.49,0.06,-1.88,1
72,1768267290,268,-20,7980,100,84,-27,140.49,0.04,-1.91,1
73,1768267290,238,22,7982,103,80,-29,140.49,0.09,-1.88,1
74,1768267290,226,42,7986,101,84,-27,140.49,0.16,-1.85,1
75,1768267290,230,12,8026,98,78,-27,140.49,0.17,-1.83,1
76,1768267290,278,6,8030,102,69,-23,140.49,0.17,-1.87,1
77,1768267290,220,24,8010,101,72,-22,140.49,0.19,-1.83,1
78,1768267290,254,12,7918,93,64,-20,130.3,0.19,-1.85,1
79,1768267290,296,-18,7962,100,64,-24,130.3,0.15,-1.92,1
80,1768267290,184,24,8050,105,57,-18,130.3,0.18,-1.81,1
81,1768267290,252,-32,7922,98,53,-20,130.3,0.12,-1.82,1
82,1768267290,284,-4,7970,97,51,-17,130.3,0.11,-1.88,1
83,1768267290,272,4,7968,99,51,-19,130.3,0.12,-1.91,1
84,1768267290,454,14,7796,100,47,-23,130.3,0.14,-2.2,1
85,1768267290,232,34,8078,97,57,-13,130.3,0.18,-2.1,1
86,1768267290,250,-12,8058,93,48,-12,130.3,0.15,-2.05,1
87,1768267290,264,-28,7970,99,42,-17,130.3,0.1,-2.03,1
88,1768267290,284,-112,7954,89,51,-15,130.3,-0.05,-2.04,1
89,1768267290,228,-74,8014,101,62,-21,130.3,-0.12,-1.97,1
90,1768267290,302,0,7944,101,64,-30,130.3,-0.07,-2.03,1
91,1768267290,280,26,8060,102,67,-31,130.3,0.0,-2.04,1
92,1768267290,274,52,7966,95,65,-26,130.3,0.1,-2.04,1
93,1768267290,288,38,8034,96,74,-22,130.3,0.15,-2.06,1
94,1768267290,312,-24,7896,96,67,-21,130.3,0.11,-2.11,1
95,1768267290,308,-48,8092,98,55,-20,130.3,0.04,-2.14,1
96,1768267290,382,-112,8060,93,44,-29,130.3,-0.09,-2.26,1
97,1768267290,298,-66,8072,99,41,-45,130.3,-0.14,-2.24,1
98,1768267290,-456,124,8856,100,55,-31,130.3,0.06,-1.22,1
99,1768267290,118,144,8156,113,81,6,130.3,0.28,-1.16,1
100,1768267290,296,-14,7984,96,81,29,130.3,0.22,-1.37,1
101,1768267290,-378,-46,8520,96,73,20,130.3,0.14,-0.61,1
102,1768267290,138,14,8110,109,85,-21,130.3,0.16,-0.7,1
103,1768267290,114,36,8080,105,86,-44,206.59,0.2,-0.74,1
104,1768267290,176,76,7962,95,73,-40,206.59,0.29,-0.86,1
105,1768267290,190,44,8016,95,79,-20,206.59,0.32,-0.98,1
106,1768267290,282,-86,8040,102,76,-9,206.59,0.16,-1.2,1
107,1768267290,434,-176,7892,97,70,-25,206.59,-0.1,-1.61,1
108,1768267290,324,-12,7944,100,77,-41,206.59,-0.07,-1.77,1
109,1768267290,258,70,7986,100,78,-45,206.59,0.06,-1.81,1
110,1768267290,280,42,7908,95,82,-22,206.59,0.13,-1.87,1
111,1768267290,288,-24,7988,94,84,-13,206.59,0.09,-1.93,1
112,1768267290,292,-34,8052,101,75,-24,206.59,0.05,-1.97,1
113,1768267290,294,2,7990,98,77,-39,206.59,0.07,-2.02,1
114,1768267290,344,42,7988,98,74,-35,206.59,0.14,-2.13,1
115,1768267290,252,-22,8068,100,74,-24,206.59,0.1,-2.08,1
116,1768267290,262,-108,8006,99,79,-10,206.59,-0.04,-2.05,1
117,1768267290,252,-110,8020,100,82,-22,206.59,-0.16,-2.02,1
118,1768267290,226,-22,7992,97,79,-35,206.59,-0.14,-1.96,1
119,1768267290,260,88,8040,98,77,-33,206.59,0.03,-1.96,1
120,1768267290,264,80,7998,96,81,-22,206.59,0.16,-1.96,1
121,1768267291,292,32,7974,97,76,-17,206.59,0.2,-2.01,1
122,1768267291,314,-10,7992,99,74,-26,206.59,0.17,-2.07,1
123,1768267291,254,-68,8024,104,82,-31,206.59,0.06,-2.04,1
124,1768267291,254,-24,8070,101,84,-33,206.59,0.04,-2.01,1
125,1768267291,216,-32,8014,99,81,-21,206.59,0.01,-1.94,1
126,1768267291,256,-40,8006,100,82,-18,206.59,-0.02,-1.93,1
127,1768267291,306,-46,7980,98,82,-27,206.59,-0.06,-2.01,1
128,1768267291,284,44,7976,104,80,-34,137.95,0.04,-2.03,1
129,1768267291,274,68,8012,102,85,-33,137.95,0.15,-2.04,1
130,1768267291,304,26,7972,100,82,-23,137.95,0.18,-2.08,1
131,1768267291,252,-36,8004,101,77,-20,137.95,0.12,-2.05,1
132,1768267291,258,-22,7960,99,80,-29,137.95,0.08,-2.03,1
133,1768267291,254,0,7960,98,89,-30,137.95,0.09,-2.01,1
134,1768267291,234,-40,7970,101,91,-29,137.95,0.04,-1.96,1
135,1768267291,280,-34,8056,109,95,-28,137.95,0.01,-1.99,1
136,1768267291,256,6,8038,102,91,-23,137.95,0.04,-1.98,1
137,1768267291,332,-44,7984,98,93,-28,137.95,0.0,-2.08,1
138,1768267291,278,18,8012,99,89,-28,137.95,0.04,-2.08,1
139,1768267291,296,-26,7968,102,95,-28,137.95,0.02,-2.11,1
140,1768267291,280,10,8020,101,98,-25,137.95,0.05,-2.11,1
141,1768267291,254,-68,7970,94,90,-30,137.95,-0.02,-2.08,1
142,1768267291,244,-74,7984,96,91,-26,137.95,-0.1,-2.03,1
143,1768267291,266,6,7968,104,98,-29,137.95,-0.04,-2.03,1
144,1768267291,206,-14,8024,105,98,-30,137.95,-0.03,-1.94,1
145,1768267291,236,12,7988,101,89,-28,137.95,0.01,-1.91,1
146,1768267291,318,6,7958,104,88,-30,137.95,0.04,-2.01,1
147,1768267291,274,38,8012,104,98,-29,137.95,0.11,-2.02,1
148,1768267291,242,-16,8060,104,99,-34,137.95,0.09,-1.98,1
149,1768267291,220,-36,7960,101,100,-32,137.95,0.04,-1.93,1
150,1768267291,266,-92,8040,106,108,-34,137.95,-0.06,-1.95,1
151,1768267291,250,-80,8014,102,97,-40,137.95,-0.14,-1.94,1
152,1768267291,296,42,7958,106,97,-49,137.95,-0.02,-2.0,1
153,1768267291,272,88,7936,101,102,-40,133.46,0.12,-2.02,1
154,1768267291,292,66,7946,105,98,-29,133.46,0.22,-2.06,1
155,1768267291,284,68,8014,107,95,-29,133.46,0.3,-2.07,1
156,1768267291,280,2,8002,113,91,-33,133.46,0.27,-2.08,1
157,1768267291,290,-32,7996,103,83,-28,133.46,0.19,-2.1,1
158,1768267291,286,-72,8010,99,75,-27,133.46,0.07,-2.11,1
159,1768267291,242,-96,7930,98,70,-21,133.46,-0.05,-2.05,1
160,1768267291,244,-72,8052,100,74,-26,133.46,-0.11,-2.0,1
161,1768267291,220,18,7980,102,67,-25,133.46,-0.04,-1.93,1
162,1768267291,260,68,7982,99,62,-23,133.46,0.08,-1.94,1
163,1768267291,264,72,8014,101,72,-22,133.46,0.19,-1.94,1
164,1768267291,274,48,8030,101,71,-26,133.46,0.25,-1.96,1
165,1768267291,254,20,7962,104,73,-25,133.46,0.25,-1.95,1
166,1768267291,266,-8,7938,104,68,-29,133.46,0.21,-1.96,1
167,1768267291,304,-92,8002,102,69,-28,133.46,0.06,-2.02,1
168,1768267291,312,-68,8066,99,67,-24,133.46,-0.01,-2.07,1
169,1768267291,356,-12,7888,106,61,-21,133.46,0.0,-2.19,1
170,1768267291,162,-52,8054,94,66,-22,133.46,-0.05,-2.0,1
171,1768267292,320,-6,8004,102,62,-19,133.46,-0.02,-2.07,1
172,1768267292,246,86,8056,97,63,-11,133.46,0.12,-2.02,1
173,1768267292,224,28,7966,92,56,-12,133.46,0.16,-1.95,1
174,1768267292,-688,78,8822,101,52,-11,133.46,0.25,-0.68,1
175,1768267292,270,14,8158,97,59,-16,133.46,0.24,-0.94,1
176,1768267292,384,-38,7950,91,60,-21,133.46,0.16,-1.32,1
177,1768267292,294,-94,7962,92,67,-30,133.46,0.01,-1.49,1
178,1768267292,452,-66,7842,94,72,-22,168.96,-0.05,-1.87,1
179,1768267292,476,-24,7964,99,78,-25,168.96,-0.05,-2.2,1
180,1768267292,218,6,7996,97,67,-19,168.96,-0.01,-2.09,1
181,1768267292,286,24,8012,103,74,-16,168.96,0.04,-2.09,1
182,1768267292,296,-22,8002,97,77,-26,168.96,0.03,-2.12,1
183,1768267292,376,-34,7940,93,71,-38,168.96,0.0,-2.25,1
184,1768267292,350,-14,7968,101,75,-36,168.96,0.0,-2.32,1
185,1768267292,274,4,8056,102,78,-25,168.96,0.03,-2.27,1
186,1768267292,388,-104,7816,98,83,-18,168.96,-0.1,-2.4,1
187,1768267292,332,-112,7896,100,81,-22,168.96,-0.21,-2.42,1
188,1768267292,332,-56,8134,108,82,-29,168.96,-0.22,-2.42,1
189,1768267292,404,78,7872,103,83,-25,168.96,-0.04,-2.55,1
190,1768267292,202,42,7934,90,76,-23,168.96,0.04,-2.35,1
191,1768267292,392,0,7950,93,77,-24,168.96,0.06,-2.46,1
192,1768267292,372,-14,8012,98,85,-28,168.96,0.05,-2.52,1
193,1768267292,192,26,8170,107,82,-32,168.96,0.1,-2.3,1
194,1768267292,322,-22,7930,99,79,-28,168.96,0.07,-2.33,1
195,1768267292,308,-22,7932,99,78,-26,168.96,0.05,-2.32,1
196,1768267292,278,-68,8044,98,81,-24,168.96,-0.03,-2.27,1
197,1768267292,270,-6,7976,108,78,-30,168.96,0.0,-2.22,1
198,1768267292,344,-6,7902,101,82,-29,168.96,0.01,-2.3,1
199,1768267292,316,26,8000,103,79,-32,168.96,0.07,-2.31,1
200,1768267292,248,36,8062,102,87,-23,168.96,0.13,-2.22,1
201,1768267292,316,16,7906,101,81,-23,168.96,0.15,-2.25,1
202,1768267292,266,-22,7968,97,80,-28,168.96,0.11,-2.2,1
203,1768267292,280,-28,8002,98,80,-26,120.35,0.07,-2.18,1
204,1768267292,270,12,8048,101,74,-30,120.35,0.1,-2.15,1
205,1768267292,280,-34,8032,97,82,-26,120.35,0.05,-2.14,1
206,1768267292,254,-66,7994,100,83,-23,120.35,-0.02,-2.09,1
207,1768267292,306,-36,7990,97,78,-25,120.35,-0.04,-2.13,1
208,1768267292,290,44,7944,100,81,-27,120.35,0.05,-2.14,1
209,1768267292,290,48,7954,100,84,-24,120.35,0.13,-2.15,1
210,1768267292,260,24,7974,100,79,-20,120.35,0.16,-2.11,1
211,1768267292,294,-20,8024,98,81,-20,120.35,0.12,-2.13,1
212,1768267292,272,-28,8124,101,83,-31,120.35,0.08,-2.11,1
213,1768267292,294,0,7982,106,82,-31,120.35,0.09,-2.12,1
214,1768267292,280,-16,7984,97,87,-23,120.35,0.07,-2.12,1
215,1768267292,302,-36,7970,98,83,-26,120.35,0.03,-2.15,1
216,1768267292,238,-10,8070,101,78,-28,120.35,0.03,-2.08,1
217,1768267292,262,22,8020,102,82,-24,120.35,0.08,-2.05,1
218,1768267292,262,28,7954,103,79,-32,120.35,0.13,-2.04,1
219,1768267292,278,-26,7982,97,81,-23,120.35,0.09,-2.05,1
220,1768267292,264,-36,8042,97,82,-24,120.35,0.04,-2.03,1
221,1768267293,276,2,8014,98,80,-25,120.35,0.06,-2.04,1
222,1768267293,296,6,7998,103,88,-27,120.35,0.08,-2.08,1
223,1768267293,280,-14,7922,101,80,-29,120.35,0.07,-2.08,1
224,1768267293,284,-38,8046,98,82,-23,120.35,0.02,-2.09,1
225,1768267293,268,18,8030,104,80,-22,120.35,0.07,-2.07,1
226,1768267293,282,12,7962,105,82,-23,120.35,0.1,-2.08,1
227,1768267293,310,24,7934,101,79,-24,120.35,0.14,-2.13,1
228,1768267293,336,52,8004,99,82,-27,140.75,0.21,-2.21,1
229,1768267293,286,22,8028,101,81,-30,140.75,0.22,-2.19,1
230,1768267293,284,-40,7994,100,82,-28,140.75,0.14,-2.18,1
231,1768267293,294,-36,7892,93,86,-26,140.75,0.08,-2.19,1
232,1768267293,266,-16,7970,95,84,-27,140.75,0.07,-2.15,1
233,1768267293,276,-8,8032,101,83,-28,140.75,0.06,-2.14,1
234,1768267293,278,-12,7944,99,81,-27,140.75,0.06,-2.13,1
235,1768267293,252,-28,7948,104,83,-23,140.75,0.03,-2.09,1
236,1768267293,284,20,7958,97,80,-29,140.75,0.08,-2.1,1
237,1768267293,298,24,8016,93,84,-27,140.75,0.12,-2.12,1
238,1768267293,262,6,7996,96,83,-25,140.75,0.12,-2.09,1
239,1768267293,294,-14,7992,97,78,-26,140.75,0.1,-2.11,1
240,1768267293,310,-52,7984,96,78,-25,140.75,0.03,-2.15,1
241,1768267293,296,-42,8010,98,80,-27,140.75,0.0,-2.16,1
242,1768267293,250,12,8066,105,84,-27,140.75,0.03,-2.11,1
243,1768267293,280,-4,7990,104,80,-24,140.75,0.04,-2.1,1
244,1768267293,296,-20,7974,98,80,-28,140.75,0.03,-2.13,1
245,1768267293,258,12,8030,102,81,-27,140.75,0.06,-2.09,1
246,1768267293,266,12,8042,104,80,-25,140.75,0.09,-2.07,1
247,1768267293,272,-2,7924,97,78,-28,140.75,0.09,-2.07,1
248,1768267293,290,-26,8024,99,85,-25,140.75,0.06,-2.09,1
249,1768267293,284,-40,8042,98,78,-26,140.75,0.02,-2.09,1
250,1768267293,264,-2,8074,105,81,-28,140.75,0.03,-2.07,1
251,1768267293,274,-4,7992,100,86,-31,140.75,0.04,-2.07,1
252,1768267293,270,-24,7964,99,80,-22,140.75,0.02,-2.06,1
253,1768267293,274,-18,7988,96,77,-25,135.64,0.02,-2.06,1
254,1768267293,282,48,8034,99,79,-26,135.64,0.1,-2.07,1
255,1768267293,266,-6,8012,105,79,-29,135.64,0.1,-2.05,1
256,1768267293,252,-34,7962,100,78,-27,135.64,0.05,-2.02,1
257,1768267293,306,-44,7986,103,81,-25,135.64,0.0,-2.08,1
258,1768267293,310,14,8022,100,82,-27,135.64,0.05,-2.12,1
259,1768267293,306,-32,7968,94,85,-26,135.64,0.01,-2.16,1
260,1768267293,296,-30,7970,99,81,-24,135.64,0.0,-2.17,1
261,1768267293,274,-6,7972,95,83,-27,135.64,0.01,-2.15,1
262,1768267293,296,34,7978,101,79,-27,135.64,0.08,-2.16,1
263,1768267293,224,26,7976,100,77,-25,135.64,0.12,-2.07,1
264,1768267293,318,-12,7998,101,76,-26,135.64,0.1,-2.13,1
265,1768267293,326,-24,8028,99,78,-29,135.64,0.07,-2.19,1
266,1768267293,252,-22,8080,101,81,-31,135.64,0.05,-2.12,1
267,1768267293,284,2,7930,102,82,-28,135.64,0.07,-2.13,1
268,1768267293,294,-20,7910,98,77,-27,135.64,0.05,-2.15,1
269,1768267293,294,-2,7974,96,79,-29,135.64,0.06,-2.16,1
270,1768267293,266,8,8044,102,79,-27,135.64,0.08,-2.12,1
271,1768267294,278,50,8080,106,86,-24,135.64,0.16,-2.11,1
272,1768267294,220,-12,7950,100,85,-28,135.64,0.13,-2.03,1
273,1768267294,294,-18,7990,96,83,-34,135.64,0.1,-2.06,1
274,1768267294,252,6,8052,101,79,-25,135.64,0.12,-2.03,1
275,1768267294,250,-8,8008,101,80,-25,135.64,0.1,-2.0,1
276,1768267294,310,-16,8032,98,79,-26,135.64,0.08,-2.06,1
277,1768267294,310,2,7984,100,80,-22,135.64,0.09,-2.11,1
278,1768267294,270,-4,7990,104,78,-24,138.01,0.09,-2.09,1
279,1768267294,254,26,8072,100,76,-30,138.01,0.14,-2.05,1
280,1768267294,250,-18,7970,99,79,-27,138.01,0.11,-2.02,1
281,1768267294,274,-4,8020,97,80,-28,138.01,0.1,-2.03,1
282,1768267294,290,0,7978,101,77,-28,138.01,0.1,-2.05,1
283,1768267294,244,28,8068,103,78,-27,138.01,0.15,-2.01,1
284,1768267294,240,6,8036,105,80,-23,138.01,0.15,-1.97,1
285,1768267294,310,-12,7928,98,76,-29,138.01,0.13,-2.04,1
286,1768267294,282,-42,7974,101,78,-26,138.01,0.06,-2.05,1
287,1768267294,278,2,7998,98,78,-28,138.01,0.08,-2.06,1
288,1768267294,248,10,7998,99,77,-28,138.01,0.1,-2.02,1
289,1768267294,332,42,7976,99,82,-28,138.01,0.16,-2.11,1
290,1768267294,256,-44,7976,97,83,-24,138.01,0.09,-2.08,1
291,1768267294,290,10,8006,102,80,-24,138.01,0.11,-2.09,1
292,1768267294,280,24,8062,106,76,-27,138.01,0.15,-2.09,1
293,1768267294,248,-36,7974,97,80,-20,138.01,0.09,-2.05,1
294,1768267294,318,-28,7972,98,78,-28,138.01,0.05,-2.11,1
295,1768267294,290,6,8056,105,78,-27,138.01,0.08,-2.12,1
296,1768267294,300,28,8052,103,80,-31,138.01,0.12,-2.14,1
297,1768267294,264,0,7958,101,80,-23,138.01,0.12,-2.11,1
298,1768267294,276,-46,7904,94,85,-30,138.01,0.05,-2.11,1
299,1768267294,272,18,8032,104,83,-27,138.01,0.09,-2.09,1
300,1768267294,272,8,8072,104,87,-31,138.01,0.11,-2.08,1
301,1768267294,286,0,7974,100,83,-29,138.01,0.11,-2.1,1
302,1768267294,282,-20,8006,97,80,-28,138.01,0.08,-2.1,1
303,1768267294,288,-10,7990,97,82,-27,142.74,0.08,-2.11,1
304,1768267294,278,22,7956,105,82,-27,142.74,0.12,-2.11,1
305,1768267294,288,22,7954,103,85,-31,142.74,0.15,-2.12,1
306,1768267294,264,-28,7938,94,82,-28,142.74,0.1,-2.1,1
307,1768267294,272,-10,8014,102,83,-29,142.74,0.09,-2.09,1
308,1768267294,260,2,8016,107,85,-22,142.74,0.1,-2.06,1
309,1768267294,288,-16,7944,94,83,-25,142.74,0.08,-2.08,1
310,1768267294,266,-22,7948,96,77,-27,142.74,0.05,-2.07,1
311,1768267294,280,-24,7954,97,81,-27,142.74,0.03,-2.08,1
312,1768267294,264,-2,8028,103,84,-29,142.74,0.05,-2.06,1
313,1768267294,252,-10,7984,102,78,-23,142.74,0.05,-2.02,1
314,1768267294,296,-26,7974,101,78,-25,142.74,0.02,-2.06,1
315,1768267294,300,8,8046,99,80,-25,142.74,0.05,-2.1,1
316,1768267294,224,12,8026,99,81,-25,142.74,0.08,-2.02,1
317,1768267294,260,-22,7962,102,81,-27,142.74,0.06,-2.01,1
318,1768267294,282,28,7996,101,79,-26,142.74,0.11,-2.03,1
319,1768267294,276,-24,8004,103,78,-23,142.74,0.08,-2.03,1
320,1768267294,290,-20,8032,103,77,-29,142.74,0.06,-2.06,1
321,1768267295,272,-26,8044,106,85,-29,142.74,0.03,-2.05,1
322,1768267295,270,-12,8012,101,84,-27,142.74,0.03,-2.05,1
323,1768267295,306,-16,7936,100,79,-28,142.74,0.03,-2.1,1
324,1768267295,270,2,8024,101,81,-29,142.74,0.05,-2.08,1
325,1768267295,284,-20,8000,103,82,-29,142.74,0.03,-2.09,1
326,1768267295,296,-54,7992,96,81,-21,142.74,-0.02,-2.12,1
327,1768267295,292,-40,7940,101,85,-25,142.74,-0.05,-2.13,1
328,1768267295,290,-2,8006,103,82,-25,129.8,-0.01,-2.14,1
329,1768267295,262,36,7996,97,77,-26,129.8,0.06,-2.11,1
330,1768267295,214,14,8026,103,79,-24,129.8,0.09,-2.01,1
331,1768267295,270,-24,7968,96,88,-25,129.8,0.06,-2.02,1
332,1768267295,296,-14,8014,97,80,-24,129.8,0.05,-2.05,1
333,1768267295,314,8,8016,103,86,-27,129.8,0.08,-2.11,1
334,1768267295,280,-22,7974,105,81,-23,129.8,0.05,-2.11,1
335,1768267295,274,6,8016,102,78,-27,129.8,0.08,-2.1,1
336,1768267295,288,-8,8010,98,80,-27,129.8,0.07,-2.11,1
337,1768267295,290,-32,8008,98,77,-31,129.8,0.03,-2.12,1
338,1768267295,254,-8,8026,98,80,-26,129.8,0.04,-2.08,1
339,1768267295,234,-6,7978,101,85,-26,129.8,0.05,-2.02,1
340,1768267295,330,62,7964,100,77,-27,129.8,0.15,-2.11,1
341,1768267295,256,-12,8028,105,81,-28,129.8,0.13,-2.07,1
342,1768267295,282,-4,7996,102,80,-20,129.8,0.12,-2.08,1
343,1768267295,278,-30,8008,97,78,-24,129.8,0.08,-2.08,1
344,1768267295,240,16,7958,101,85,-27,129.8,0.11,-2.03,1
345,1768267295,270,8,8012,103,81,-28,129.8,0.12,-2.03,1
346,1768267295,250,10,7948,99,81,-30,129.8,0.13,-2.0,1
347,1768267295,290,-24,7974,99,77,-27,129.8,0.1,-2.03,1
348,1768267295,298,-22,8000,100,77,-24,129.8,0.07,-2.07,1
349,1768267295,300,-24,7986,100,84,-26,129.8,0.04,-2.11,1
350,1768267295,270,2,8032,98,80,-26,129.8,0.06,-2.09,1
351,1768267295,278,-4,7978,100,85,-22,129.8,0.07,-2.09,1
352,1768267295,274,-10,8058,101,84,-26,129.8,0.06,-2.08,1
353,1768267295,242,12,8034,105,81,-31,140.78,0.09,-2.03,1
354,1768267295,264,-22,7978,100,87,-31,140.78,0.07,-2.02,1
355,1768267295,318,12,7960,96,81,-25,140.78,0.09,-2.09,1
356,1768267295,306,-26,7974,103,78,-24,140.78,0.06,-2.13,1
357,1768267295,274,18,8028,95,81,-29,140.78,0.1,-2.12,1
358,1768267295,254,-6,8064,96,79,-24,140.78,0.09,-2.07,1
359,1768267295,308,-14,7990,101,82,-30,140.78,0.08,-2.12,1
360,1768267295,260,-8,8006,104,83,-28,140.78,0.07,-2.09,1
361,1768267295,274,18,8012,101,85,-28,140.78,0.11,-2.08,1
362,1768267295,260,-2,7990,101,80,-25,140.78,0.11,-2.06,1
363,1768267295,276,-14,7962,101,77,-27,140.78,0.09,-2.06,1
364,1768267295,300,2,8020,97,80,-25,140.78,0.1,-2.09,1
365,1768267295,296,-24,8010,102,79,-24,140.78,0.07,-2.12,1
366,1768267295,272,-18,8004,101,83,-26,140.78,0.05,-2.1,1
367,1768267295,288,-26,8006,97,78,-28,140.78,0.03,-2.11,1
368,1768267295,286,-4,7994,100,78,-26,140.78,0.04,-2.12,1
369,1768267295,254,-4,8040,104,82,-22,140.78,0.05,-2.07,1
370,1768267295,272,-20,7972,100,81,-25,140.78,0.03,-2.07,1
371,1768267296,276,-36,8034,97,83,-24,140.78,0.0,-2.07,1
372,1768267296,284,-20,7994,103,79,-26,140.78,0.0,-2.08,1
373,1768267296,268,-18,8036,103,81,-26,140.78,0.0,-2.06,1
374,1768267296,274,-36,7960,99,80,-29,140.78,-0.02,-2.06,1
375,1768267296,272,-64,8036,97,84,-29,140.78,-0.08,-2.06,1
376,1768267296,256,4,7996,100,75,-29,140.78,-0.04,-2.03,1
377,1768267296,274,20,8030,99,82,-32,140.78,0.01,-2.03,1
378,1768267296,310,-2,7990,98,83,-24,144.08,0.03,-2.09,1
379,1768267296,258,2,7986,98,80,-27,144.08,0.05,-2.06,1
380,1768267296,310,2,8004,98,81,-24,144.08,0.07,-2.11,1
381,1768267296,250,-6,8000,103,82,-31,144.08,0.07,-2.07,1
382,1768267296,260,-12,8002,105,82,-24,144.08,0.06,-2.04,1
383,1768267296,300,-24,7960,90,85,-25,144.08,0.04,-2.09,1
384,1768267296,298,-8,8082,93,85,-26,144.08,0.04,-2.11,1
385,1768267296,296,34,7964,105,82,-26,144.08,0.11,-2.13,1
386,1768267296,270,-12,8010,102,80,-27,144.08,0.09,-2.11,1
387,1768267296,298,-20,8012,95,79,-21,144.08,0.07,-2.13,1
388,1768267296,278,-4,8018,98,80,-26,144.08,0.07,-2.12,1
389,1768267296,280,-4,8022,101,79,-29,144.08,0.07,-2.12,1
390,1768267296,300,-34,8028,102,77,-27,144.08,0.03,-2.14,1
391,1768267296,292,-6,7996,100,80,-27,144.08,0.04,-2.15,1
392,1768267296,266,-12,8014,95,76,-26,144.08,0.04,-2.12,1
393,1768267296,300,-8,7994,103,85,-28,144.08,0.04,-2.14,1
394,1768267296,278,-2,8000,102,82,-27,144.08,0.06,-2.13,1
395,1768267296,260,-30,7978,100,82,-22,144.08,0.03,-2.1,1
396,1768267296,258,-4,8002,96,75,-32,144.08,0.04,-2.06,1
397,1768267296,322,-10,8028,99,79,-28,144.08,0.04,-2.13,1
398,1768267296,264,0,8026,103,86,-27,144.08,0.06,-2.1,1
399,1768267296,282,-26,7948,99,78,-28,144.08,0.03,-2.1,1
400,1768267296,306,-12,7986,97,81,-27,144.08,0.03,-2.14,1
401,1768267296,266,-10,7972,97,81,-26,144.08,0.03,-2.11,1
402,1768267296,254,-12,8016,103,77,-27,144.08,0.03,-2.07,1
403,1768267296,280,12,7984,99,83,-31,141.97,0.07,-2.08,1
404,1768267296,296,-16,7944,95,77,-24,141.97,0.05,-2.11,1
405,1768267296,290,-8,7970,102,80,-22,141.97,0.05,-2.12,1
406,1768267296,264,14,8030,104,84,-30,141.97,0.09,-2.09,1
407,1768267296,288,6,7956,104,82,-29,141.97,0.1,-2.11,1
408,1768267296,310,-44,7942,95,80,-25,141.97,0.04,-2.15,1
409,1768267296,284,-18,7952,98,81,-22,141.97,0.03,-2.15,1
410,1768267296,300,4,7978,103,81,-21,141.97,0.05,-2.17,1
411,1768267296,286,-8,8000,100,85,-28,141.97,0.06,-2.16,1
412,1768267296,290,-34,7956,97,87,-29,141.97,0.02,-2.17,1
413,1768267296,274,-22,8000,99,79,-29,141.97,0.01,-2.15,1
414,1768267296,296,-4,8006,102,82,-31,141.97,0.02,-2.16,1
415,1768267296,290,-12,7994,97,83,-29,141.97,0.02,-2.16,1
416,1768267296,288,-28,7946,99,82,-34,141.97,0.0,-2.16,1
417,1768267296,228,-22,8012,98,85,-27,141.97,0.0,-2.08,1
418,1768267296,286,-10,8040,99,84,-30,141.97,0.0,-2.09,1
419,1768267296,276,8,8012,99,83,-29,141.97,0.04,-2.08,1
420,1768267296,292,-20,7942,94,80,-30,141.97,0.02,-2.11,1
421,1768267297,270,-20,7988,103,80,-22,141.97,0.01,-2.09,1
422,1768267297,286,20,8076,101,82,-27,141.97,0.06,-2.1,1
423,1768267297,262,44,8088,105,81,-22,141.97,0.14,-2.07,1
424,1768267297,272,-48,7930,103,78,-28,141.97,0.06,-2.07,1
425,1768267297,294,-14,7974,97,81,-25,141.97,0.05,-2.09,1
426,1768267297,314,2,8014,102,83,-28,141.97,0.07,-2.14,1
427,1768267297,248,36,7998,98,80,-30,141.97,0.13,-2.09,1
428,1768267297,256,-28,8010,100,81,-23,131.11,0.09,-2.06,1
429,1768267297,308,-36,7964,96,78,-22,131.11,0.04,-2.11,1
430,1768267297,274,-28,7976,97,81,-25,131.11,0.02,-2.1,1
431,1768267297,290,-2,7998,101,80,-27,131.11,0.03,-2.11,1
432,1768267297,290,-8,7986,103,86,-25,131.11,0.04,-2.12,1
433,1768267297,286,-38,7964,91,86,-30,131.11,0.0,-2.13,1
434,1768267297,276,6,8022,98,82,-25,131.11,0.03,-2.12,1
435,1768267297,292,46,7990,103,82,-26,131.11,0.11,-2.13,1
436,1768267297,278,-2,7954,101,81,-24,131.11,0.11,-2.12,1
437,1768267297,282,-24,7932,97,83,-28,131.11,0.08,-2.13,1
438,1768267297,268,-28,7988,101,84,-28,131.11,0.05,-2.1,1
439,1768267297,272,2,8064,106,78,-24,131.11,0.06,-2.09,1
440,1768267297,280,-26,8042,98,80,-26,131.11,0.04,-2.09,1
441,1768267297,290,0,7992,97,81,-25,131.11,0.05,-2.1,1
442,1768267297,318,-30,7968,92,73,-21,131.11,0.02,-2.16,1
443,1768267297,296,4,8026,100,86,-29,131.11,0.05,-2.17,1
444,1768267297,292,16,7940,103,82,-25,131.11,0.08,-2.18,1
445,1768267297,270,-8,7976,103,81,-31,131.11,0.08,-2.15,1
446,1768267297,332,-48,7986,94,82,-28,131.11,0.02,-2.21,1
447,1768267297,272,-18,8008,101,83,-25,131.11,0.01,-2.18,1
448,1768267297,278,10,8002,104,81,-26,131.11,0.05,-2.16,1
449,1768267297,252,-20,7934,99,83,-25,131.11,0.03,-2.11,1
450,1768267297,292,-40,7942,97,83,-25,131.11,0.0,-2.13,1
451,1768267297,310,-2,8026,102,85,-25,131.11,0.01,-2.17,1
452,1768267297,272,4,7964,99,84,-24,131.11,0.04,-2.14,1
453,1768267297,340,-14,7946,100,83,-26,124.61,0.04,-2.22,1
454,1768267297,316,-32,7990,96,84,-30,124.61,0.0,-2.25,1
455,1768267297,278,-26,7968,99,83,-26,124.61,0.0,-2.22,1
456,1768267297,252,32,8026,101,85,-29,124.61,0.06,-2.16,1
457,1768267297,270,-2,7940,102,79,-25,124.61,0.07,-2.13,1
458,1768267297,252,-30,7998,101,77,-26,124.61,0.04,-2.08,1
459,1768267297,278,-20,8018,100,77,-29,124.61,0.02,-2.08,1
460,1768267297,280,34,8004,99,83,-24,124.61,0.09,-2.09,1
461,1768267297,294,14,7972,105,80,-32,124.61,0.12,-2.11,1
462,1768267297,336,-50,7962,104,81,-26,124.61,0.05,-2.19,1
463,1768267297,306,24,8042,102,78,-25,124.61,0.1,-2.21,1
464,1768267297,272,28,8024,103,83,-29,124.61,0.14,-2.17,1
465,1768267297,264,-4,7990,100,77,-22,124.61,0.13,-2.13,1
466,1768267297,280,-14,7916,99,83,-26,124.61,0.11,-2.13,1
467,1768267297,276,8,8056,101,82,-30,124.61,0.12,-2.12,1
468,1768267297,300,14,8022,102,81,-24,124.61,0.14,-2.14,1
469,1768267297,266,58,7972,99,76,-24,124.61,0.22,-2.11,1
470,1768267297,282,-56,7982,101,80,-24,124.61,0.12,-2.11,1
471,1768267298,238,-24,7936,99,84,-22,124.61,0.08,-2.05,1
472,1768267298,288,26,7986,102,82,-27,124.61,0.13,-2.07,1
473,1768267298,282,8,8012,100,80,-24,124.61,0.14,-2.08,1
474,1768267298,328,-20,8024,101,82,-23,124.61,0.1,-2.15,1
475,1768267298,322,-14,7970,105,86,-26,124.61,0.09,-2.2,1
476,1768267298,254,4,8018,99,80,-24,124.61,0.1,-2.15,1
477,1768267298,302,-14,7956,100,74,-25,124.61,0.08,-2.17,1
478,1768267298,288,-6,8004,99,80,-25,132.4,0.08,-2.17,1
479,1768267298,222,-6,8034,102,82,-30,132.4,0.08,-2.07,1
480,1768267298,246,-32,8054,102,82,-26,132.4,0.04,-2.02,1
481,1768267298,276,-14,7980,101,86,-21,132.4,0.04,-2.03,1
482,1768267298,232,0,7966,99,80,-27,132.4,0.05,-1.98,1
483,1768267298,294,12,7990,107,81,-30,132.4,0.08,-2.02,1
484,1768267298,276,-18,8024,104,82,-29,132.4,0.07,-2.03,1
485,1768267298,268,-40,7998,94,75,-25,132.4,0.02,-2.03,1
486,1768267298,294,-24,8072,101,82,-19,132.4,0.0,-2.06,1
487,1768267298,264,6,7980,105,79,-21,132.4,0.04,-2.04,1
488,1768267298,304,-6,7972,95,80,-23,132.4,0.04,-2.09,1
489,1768267298,286,8,8030,100,78,-28,132.4,0.07,-2.1,1
490,1768267298,268,18,8016,103,75,-26,132.4,0.11,-2.08,1
491,1768267298,292,16,7926,102,85,-27,132.4,0.13,-2.1,1
492,1768267298,260,-48,7956,96,83,-26,132.4,0.06,-2.08,1
493,1768267298,280,-20,8038,97,82,-30,132.4,0.04,-2.08,1
494,1768267298,280,32,8008,102,78,-30,132.4,0.1,-2.08,1
495,1768267298,250,12,7998,104,82,-25,132.4,0.12,-2.04,1
496,1768267298,266,-54,7980,96,81,-24,132.4,0.04,-2.04,1
497,1768267298,270,-6,8026,92,80,-26,132.4,0.05,-2.03,1
498,1768267298,298,-22,8028,103,81,-26,132.4,0.03,-2.07,1
499,1768267298,272,-6,7962,93,79,-29,132.4,0.04,-2.07,1
500,1768267298,310,-10,7950,96,77,-27,132.4,0.04,-2.12,1
