SampleIndex,Timestamp,Ax,Ay,Az,Gx,Gy,Gz,RMS,Pitch,Roll,StepCount
1,1768267298,284,20,7992,99,79,-28,132.4,0.08,-2.12,1
2,1768267298,274,4,8026,102,83,-25,132.4,0.1,-2.11,1
3,1768267298,264,0,7972,98,85,-29,139.59,0.1,-2.08,1
4,1768267298,306,-4,7946,97,87,-25,139.59,0.1,-2.13,1
5,1768267298,274,-22,7968,101,81,-29,139.59,0.07,-2.12,1
6,1768267298,294,6,8020,103,81,-25,139.59,0.09,-2.13,1
7,1768267298,274,-32,8020,100,85,-25,139.59,0.05,-2.12,1
8,1768267298,270,-36,8006,101,80,-25,139.59,0.01,-2.1,1
9,1768267298,266,20,7992,106,82,-20,139.59,0.06,-2.08,1
10,1768267298,294,-12,8010,103,83,-26,139.59,0.06,-2.1,1
11,1768267298,276,-22,7964,99,80,-25,139.59,0.04,-2.1,1
12,1768267298,284,2,8024,103,82,-27,139.59,0.06,-2.1,1
13,1768267298,272,-12,8000,97,80,-27,139.59,0.05,-2.09,1
14,1768267298,278,-52,8006,93,83,-24,139.59,0.0,-2.09,1
15,1768267298,306,-8,8034,103,81,-26,139.59,0.0,-2.13,1
16,1768267298,278,12,8030,105,83,-25,139.59,0.04,-2.12,1
17,1768267298,302,-46,7912,99,79,-29,139.59,0.0,-2.15,1
18,1768267298,282,-8,7994,100,80,-24,139.59,0.01,-2.14,1
19,1768267298,284,36,8000,102,82,-29,139.59,0.08,-2.14,1
20,1768267298,294,4,7964,102,83,-31,139.59,0.09,-2.15,1
21,1768267299,290,-8,8046,96,82,-26,139.59,0.09,-2.15,1
22,1768267299,280,14,8026,103,78,-27,139.59,0.11,-2.14,1
23,1768267299,302,10,7948,105,83,-25,139.59,0.13,-2.17,1
24,1768267299,282,-34,7970,96,80,-26,139.59,0.08,-2.16,1
25,1768267299,282,-8,7938,97,82,-27,139.59,0.07,-2.15,1
26,1768267299,258,0,7994,102,82,-27,139.59,0.08,-2.11,1
27,1768267299,262,6,8040,105,86,-25,139.59,0.1,-2.08,1
28,1768267299,300,-40,7994,99,78,-22,134.66,0.05,-2.11,1
29,1768267299,274,28,7982,100,83,-25,134.66,0.1,-2.1,1
30,1768267299,280,28,7990,100,83,-30,134.66,0.14,-2.1,1
31,1768267299,274,-4,8002,96,84,-24,134.66,0.13,-2.09,1
32,1768267299,290,4,7972,101,81,-24,134.66,0.13,-2.11,1
33,1768267299,274,14,7994,104,78,-24,134.66,0.15,-2.1,1
34,1768267299,252,-8,7994,101,82,-27,134.66,0.13,-2.06,1
35,1768267299,268,-26,8040,96,79,-25,134.66,0.09,-2.05,1
36,1768267299,294,44,8008,96,81,-23,134.66,0.16,-2.08,1
37,1768267299,268,-6,8046,102,83,-31,134.66,0.14,-2.06,1
38,1768267299,286,-56,8078,100,83,-26,134.66,0.06,-2.08,1
39,1768267299,256,52,8044,103,84,-24,134.66,0.14,-2.04,1
40,1768267299,236,30,7986,103,81,-28,134.66,0.18,-1.99,1
41,1768267299,268,-38,8038,91,80,-26,134.66,0.11,-1.99,1
42,1768267299,286,-12,8072,99,83,-29,134.66,0.1,-2.02,1
43,1768267299,270,24,8002,105,80,-24,134.66,0.14,-2.02,1
44,1768267299,262,10,8010,95,80,-28,134.66,0.15,-2.01,1
45,1768267299,256,-20,8030,101,78,-24,134.66,0.11,-1.99,1
46,1768267299,274,14,8052,103,82,-28,134.66,0.13,-2.0,1
47,1768267299,304,-8,7940,104,83,-26,134.66,0.12,-2.06,1
48,1768267299,262,-58,7998,98,78,-21,134.66,0.04,-2.04,1
49,1768267299,276,-10,8038,101,81,-27,134.66,0.04,-2.04,1
50,1768267299,242,20,8056,104,83,-30,134.66,0.08,-2.0,1
51,1768267299,280,-24,7910,105,82,-25,134.66,0.06,-2.02,1
52,1768267299,326,-16,7976,96,82,-23,134.66,0.04,-2.11,1
53,1768267299,256,18,8010,104,81,-27,151.19,0.09,-2.07,1
54,1768267299,230,-26,7960,101,85,-30,151.19,0.05,-2.01,1
55,1768267299,298,-18,8012,101,83,-26,151.19,0.04,-2.05,1
56,1768267299,288,2,7962,101,80,-23,151.19,0.06,-2.07,1
57,1768267299,286,-22,7984,103,83,-24,151.19,0.04,-2.09,1
58,1768267299,304,-20,8006,102,83,-27,151.19,0.03,-2.12,1
59,1768267299,262,0,8024,100,84,-27,151.19,0.05,-2.09,1
60,1768267299,252,-12,7990,102,80,-27,151.19,0.04,-2.05,1
61,1768267299,288,-56,7952,100,81,-28,151.19,-0.01,-2.08,1
62,1768267299,230,16,8004,99,74,-25,151.19,0.03,-2.01,1
63,1768267299,304,20,8002,103,83,-31,151.19,0.08,-2.06,1
64,1768267299,292,-50,7978,102,81,-21,151.19,0.01,-2.09,1
65,1768267299,276,8,8002,102,80,-23,151.19,0.05,-2.08,1
66,1768267299,248,18,7992,102,83,-26,151.19,0.09,-2.04,1
67,1768267299,280,-8,7964,100,80,-28,151.19,0.08,-2.05,1
68,1768267299,310,-24,8018,103,86,-25,151.19,0.05,-2.11,1
69,1768267299,274,66,8014,104,87,-25,151.19,0.16,-2.1,1
70,1768267299,280,-22,7988,99,82,-25,151.19,0.12,-2.1,1
71,1768267300,276,-44,8022,104,79,-23,151.19,0.06,-2.09,1
72,1768267300,274,18,8026,106,81,-25,151.19,0.1,-2.08,1
73,1768267300,244,-10,7994,99,79,-23,151.19,0.09,-2.03,1
74,1768267300,346,-38,7956,98,81,-23,151.19,0.04,-2.14,1
75,1768267300,240,-8,7966,102,82,-26,151.19,0.04,-2.08,1
76,1768267300,238,6,7998,101,80,-24,151.19,0.07,-2.02,1
77,1768267300,256,-42,7960,93,80,-31,151.19,0.01,-2.01,1
78,1768267300,314,4,7980,106,79,-23,130.72,0.04,-2.07,1
79,1768267300,290,20,7966,99,80,-24,130.72,0.09,-2.09,1
80,1768267300,272,-34,7994,99,76,-26,130.72,0.04,-2.08,1
81,1768267300,324,-14,7988,99,81,-25,130.72,0.04,-2.15,1
82,1768267300,254,-4,7950,95,79,-29,130.72,0.05,-2.1,1
83,1768267300,302,-10,7986,99,81,-29,130.72,0.05,-2.13,1
84,1768267300,252,28,8036,109,80,-29,130.72,0.1,-2.09,1
85,1768267300,242,-28,8060,102,84,-25,130.72,0.07,-2.03,1
86,1768267300,248,-32,8026,100,80,-28,130.72,0.03,-2.0,1
87,1768267300,276,28,8032,103,80,-26,130.72,0.09,-2.01,1
88,1768267300,272,-20,7974,98,83,-21,130.72,0.07,-2.02,1
89,1768267300,268,-10,7986,93,78,-26,130.72,0.06,-2.02,1
90,1768267300,268,46,8026,106,81,-28,130.72,0.14,-2.02,1
91,1768267300,274,-2,8034,105,85,-31,130.72,0.13,-2.02,1
92,1768267300,298,-34,8080,100,78,-25,130.72,0.08,-2.06,1
93,1768267300,260,16,7984,97,78,-29,130.72,0.11,-2.04,1
94,1768267300,306,-16,7944,97,79,-23,130.72,0.09,-2.09,1
95,1768267300,302,-12,7986,99,75,-29,130.72,0.08,-2.12,1
96,1768267300,274,4,7996,108,83,-25,130.72,0.09,-2.11,1
97,1768267300,242,-14,8048,102,84,-23,130.72,0.08,-2.05,1
98,1768267300,292,-54,8056,95,78,-28,130.72,0.01,-2.07,1
99,1768267300,260,-48,8022,101,80,-28,130.72,-0.03,-2.05,1
100,1768267300,302,-22,8000,98,76,-29,130.72,-0.03,-2.09,1
101,1768267300,304,-10,8022,99,75,-26,130.72,-0.01,-2.12,1
102,1768267300,258,16,8024,105,81,-23,130.72,0.03,-2.09,1
103,1768267300,264,-24,8024,99,81,-28,150.34,0.01,-2.06,1
104,1768267300,306,-18,8006,98,78,-27,150.34,0.01,-2.11,1
105,1768267300,258,-10,7970,101,80,-24,150.34,0.01,-2.08,1
106,1768267300,294,-12,7970,98,78,-31,150.34,0.02,-2.1,1
107,1768267300,302,-4,8034,97,78,-29,150.34,0.03,-2.13,1
108,1768267300,268,2,7992,102,92,-24,150.34,0.05,-2.11,1
109,1768267300,270,-48,7988,98,78,-23,150.34,0.0,-2.09,1
110,1768267300,296,-22,7978,102,79,-24,150.34,0.0,-2.12,1
111,1768267300,272,6,7962,103,79,-28,150.34,0.02,-2.1,1
112,1768267300,306,-24,8008,103,83,-26,150.34,0.01,-2.14,1
113,1768267300,262,28,8046,100,88,-24,150.34,0.07,-2.11,1
114,1768267300,260,-16,7994,105,86,-29,150.34,0.06,-2.08,1
115,1768267300,324,-48,7912,98,74,-23,150.34,0.0,-2.15,1
116,1768267300,270,2,8014,98,81,-27,150.34,0.03,-2.12,1
117,1768267300,284,44,8020,106,82,-26,150.34,0.11,-2.12,1
118,1768267300,266,-50,8000,95,83,-24,150.34,0.04,-2.1,1
119,1768267300,282,-2,7998,101,84,-28,150.34,0.05,-2.1,1
120,1768267300,258,-16,8008,101,84,-28,150.34,0.04,-2.07,1
121,1768267301,258,-10,7976,99,74,-27,150.34,0.04,-2.04,1
122,1768267301,286,28,8002,97,81,-27,150.34,0.1,-2.06,1
123,1768267301,274,-40,7980,100,78,-28,150.34,0.04,-2.06,1
124,1768267301,296,-30,7974,102,83,-21,150.34,0.02,-2.09,1
125,1768267301,264,10,8012,102,85,-26,150.34,0.05,-2.07,1
126,1768267301,300,-2,8040,102,84,-24,150.34,0.06,-2.1,1
127,1768267301,284,-4,7982,106,80,-27,150.34,0.07,-2.11,1
128,1768267301,260,-20,7970,100,79,-24,134.13,0.05,-2.08,1
129,1768267301,278,-54,7984,96,80,-27,134.13,-0.01,-2.08,1
130,1768267301,286,22,8060,101,78,-28,134.13,0.04,-2.09,1
131,1768267301,290,-12,7960,105,79,-26,134.13,0.04,-2.11,1
132,1768267301,300,-36,8050,98,81,-27,134.13,0.0,-2.13,1
133,1768267301,252,28,8034,108,81,-26,134.13,0.07,-2.08,1
134,1768267301,288,-14,7956,97,76,-27,134.13,0.06,-2.1,1
135,1768267301,284,-18,8040,100,78,-32,134.13,0.04,-2.1,1
136,1768267301,216,28,8070,109,84,-26,134.13,0.1,-2.01,1
137,1768267301,296,-30,7958,99,84,-22,134.13,0.06,-2.05,1
138,1768267301,300,4,8024,100,82,-30,134.13,0.08,-2.09,1
139,1768267301,290,4,7974,101,84,-23,134.13,0.09,-2.11,1
140,1768267301,242,-44,7994,96,79,-26,134.13,0.03,-2.05,1
141,1768267301,258,24,7994,101,81,-28,134.13,0.08,-2.03,1
142,1768267301,272,4,8012,99,83,-26,134.13,0.1,-2.03,1
143,1768267301,288,-44,8050,97,72,-30,134.13,0.04,-2.05,1
144,1768267301,278,-10,8032,98,81,-31,134.13,0.04,-2.06,1
145,1768267301,304,-12,7970,96,81,-30,134.13,0.04,-2.1,1
146,1768267301,282,-4,7998,97,79,-23,134.13,0.05,-2.1,1
147,1768267301,252,-6,8004,99,84,-24,134.13,0.05,-2.06,1
148,1768267301,290,-28,8030,98,81,-31,134.13,0.02,-2.08,1
149,1768267301,276,42,8024,103,82,-32,134.13,0.1,-2.08,1
150,1768267301,250,-8,8020,97,79,-28,134.13,0.09,-2.04,1
151,1768267301,300,-26,8024,97,79,-29,134.13,0.06,-2.08,1
152,1768267301,258,18,7964,102,82,-27,134.13,0.1,-2.05,1
153,1768267301,306,-30,7936,99,79,-26,147.11,0.06,-2.1,1
154,1768267301,262,22,8018,104,71,-28,147.11,0.1,-2.07,1
155,1768267301,260,36,7986,99,86,-28,147.11,0.16,-2.05,1
156,1768267301,322,-56,7982,97,85,-20,147.11,0.07,-2.12,1
157,1768267301,272,4,8024,107,79,-27,147.11,0.09,-2.1,1
158,1768267301,282,-46,7994,101,83,-27,147.11,0.03,-2.11,1
159,1768267301,280,-36,7970,98,78,-26,147.11,0.0,-2.11,1
160,1768267301,288,32,7932,101,82,-29,147.11,0.06,-2.12,1
161,1768267301,278,-28,7984,100,78,-32,147.11,0.03,-2.11,1
162,1768267301,286,16,7940,105,76,-29,147.11,0.07,-2.12,1
163,1768267301,270,30,7994,102,84,-26,147.11,0.13,-2.1,1
164,1768267301,312,-48,8046,102,80,-26,147.11,0.06,-2.14,1
165,1768267301,270,8,7992,102,84,-29,147.11,0.08,-2.12,1
166,1768267301,266,-2,7972,99,81,-27,147.11,0.09,-2.1,1
167,1768267301,282,-4,7976,98,78,-24,147.11,0.09,-2.1,1
168,1768267301,260,-16,8026,100,81,-24,147.11,0.07,-2.07,1
169,1768267301,236,14,8030,97,76,-27,147.11,0.1,-2.01,1
170,1768267301,282,42,8016,104,82,-28,147.11,0.16,-2.03,1
171,1768267302,300,-18,8002,92,77,-25,147.11,0.13,-2.07,1
172,1768267302,284,16,7954,99,75,-28,147.11,0.15,-2.08,1
173,1768267302,240,22,7954,105,83,-32,147.11,0.17,-2.03,1
174,1768267302,242,-62,8022,95,75,-24,147.11,0.07,-1.99,1
175,1768267302,274,14,7980,105,76,-28,147.11,0.1,-2.0,1
176,1768267302,256,-2,8002,102,86,-30,147.11,0.1,-1.99,1
177,1768267302,298,-20,8020,97,76,-30,147.11,0.08,-2.03,1
178,1768267302,280,50,7950,105,84,-22,131.2,0.16,-2.05,1
179,1768267302,256,-30,8066,96,78,-28,131.2,0.11,-2.02,1
180,1768267302,272,-2,7970,98,86,-28,131.2,0.11,-2.03,1
181,1768267302,280,18,7986,100,78,-25,131.2,0.13,-2.04,1
182,1768267302,296,-28,7984,99,77,-32,131.2,0.09,-2.08,1
183,1768267302,268,0,8030,103,82,-23,131.2,0.1,-2.06,1
184,1768267302,278,-16,8018,96,77,-25,131.2,0.08,-2.06,1
185,1768267302,266,16,7968,100,72,-30,131.2,0.11,-2.05,1
186,1768267302,308,-48,8020,98,77,-29,131.2,0.04,-2.1,1
187,1768267302,262,2,8032,102,79,-30,131.2,0.06,-2.07,1
188,1768267302,272,4,7990,102,84,-29,131.2,0.08,-2.07,1
189,1768267302,268,-48,8016,100,78,-29,131.2,0.02,-2.05,1
190,1768267302,252,16,7986,102,78,-28,131.2,0.06,-2.02,1
191,1768267302,288,-6,7968,95,82,-24,131.2,0.06,-2.05,1
192,1768267302,272,12,8014,103,77,-23,131.2,0.09,-2.05,1
193,1768267302,274,14,8004,100,82,-27,131.2,0.12,-2.05,1
194,1768267302,282,-30,7950,102,73,-25,131.2,0.07,-2.06,1
195,1768267302,272,4,7956,104,78,-28,131.2,0.09,-2.06,1
196,1768267302,280,-64,7962,97,75,-24,131.2,0.0,-2.07,1
197,1768267302,292,-24,7984,98,80,-25,131.2,0.0,-2.09,1
198,1768267302,290,12,7942,103,78,-24,131.2,0.03,-2.11,1
199,1768267302,272,-40,7954,99,77,-28,131.2,0.0,-2.1,1
200,1768267302,276,28,8012,101,83,-26,131.2,0.06,-2.09,1
201,1768267302,284,-18,7960,98,78,-27,131.2,0.04,-2.1,1
202,1768267302,278,28,7922,103,83,-30,131.2,0.1,-2.1,1
203,1768267302,300,4,8002,99,78,-28,128.46,0.11,-2.13,1
204,1768267302,272,22,8018,100,82,-23,128.46,0.14,-2.11,1
205,1768267302,272,-12,7984,104,80,-30,128.46,0.12,-2.1,1
206,1768267302,304,-22,8046,100,80,-28,128.46,0.09,-2.13,1
207,1768267302,250,20,8000,104,80,-30,128.46,0.12,-2.08,1
208,1768267302,284,-48,8006,98,81,-25,128.46,0.05,-2.09,1
209,1768267302,260,38,7992,102,82,-26,128.46,0.12,-2.06,1
210,1768267302,246,-14,7984,104,84,-27,128.46,0.1,-2.02,1
211,1768267302,280,4,7970,100,79,-29,128.46,0.11,-2.04,1
212,1768267302,262,-24,7976,104,89,-30,128.46,0.08,-2.03,1
213,1768267302,280,-48,7942,96,78,-23,128.46,0.02,-2.04,1
214,1768267302,272,30,8052,104,78,-26,128.46,0.08,-2.04,1
215,1768267302,274,-22,8018,103,78,-29,128.46,0.06,-2.04,1
216,1768267302,288,14,7970,101,79,-27,128.46,0.09,-2.07,1
217,1768267302,272,-2,8002,104,81,-30,128.46,0.09,-2.06,1
218,1768267302,306,-32,7972,98,74,-31,128.46,0.05,-2.11,1
219,1768267302,268,10,8022,101,83,-31,128.46,0.08,-2.09,1
220,1768267302,266,-16,7968,100,81,-26,128.46,0.06,-2.07,1
221,1768267303,294,-18,7988,100,79,-23,128.46,0.05,-2.1,1
222,1768267303,232,10,7994,103,82,-29,128.46,0.08,-2.03,1
223,1768267303,286,-14,7988,98,75,-26,128.46,0.06,-2.05,1
224,1768267303,228,-32,7958,103,79,-28,128.46,0.03,-1.99,1
225,1768267303,260,-22,8026,98,81,-25,128.46,0.02,-1.98,1
226,1768267303,272,8,7978,102,80,-24,128.46,0.05,-1.99,1
227,1768267303,286,-6,8012,95,83,-26,128.46,0.05,-2.02,1
228,1768267303,258,36,8012,97,79,-27,135.48,0.12,-2.0,1
229,1768267303,236,6,7982,100,85,-28,135.48,0.12,-1.96,1
230,1768267303,298,-40,8004,99,79,-32,135.48,0.07,-2.01,1
231,1768267303,248,40,7960,102,84,-24,135.48,0.13,-1.99,1
232,1768267303,312,-10,7998,103,82,-27,135.48,0.12,-2.06,1
233,1768267303,276,2,7986,102,79,-28,135.48,0.12,-2.06,1
234,1768267303,296,16,7962,103,81,-26,135.48,0.14,-2.09,1
235,1768267303,288,-52,7980,101,79,-28,135.48,0.06,-2.11,1
236,1768267303,296,8,7978,103,76,-28,135.48,0.09,-2.13,1
237,1768267303,286,2,7994,102,85,-29,135.48,0.1,-2.13,1
238,1768267303,318,-20,7946,101,77,-20,135.48,0.07,-2.18,1
239,1768267303,288,12,7978,107,84,-22,135.48,0.1,-2.18,1
240,1768267303,268,-30,7978,96,78,-23,135.48,0.06,-2.15,1
241,1768267303,346,6,7958,101,84,-24,135.48,0.08,-2.23,1
242,1768267303,282,4,8018,97,80,-26,135.48,0.09,-2.21,1
243,1768267303,286,-36,7954,100,74,-31,135.48,0.05,-2.2,1
244,1768267303,248,14,8030,105,82,-25,135.48,0.08,-2.13,1
245,1768267303,304,-18,7962,99,82,-27,135.48,0.06,-2.16,1
246,1768267303,278,-28,7990,102,82,-26,135.48,0.03,-2.15,1
247,1768267303,288,-12,7980,104,80,-26,135.48,0.03,-2.15,1
248,1768267303,326,-42,8014,97,77,-24,135.48,0.0,-2.2,1
249,1768267303,298,18,8010,102,83,-21,135.48,0.04,-2.21,1
250,1768267303,304,-44,7968,94,82,-23,135.48,0.0,-2.22,1
251,1768267303,280,-22,8038,97,85,-30,135.48,-0.01,-2.2,1
252,1768267303,276,12,7964,102,81,-26,135.48,0.03,-2.17,1
253,1768267303,300,-26,8000,95,78,-23,126.29,0.01,-2.19,1
254,1768267303,258,28,8000,103,79,-22,126.29,0.07,-2.14,1
255,1768267303,300,-42,7972,102,76,-22,126.29,0.02,-2.16,1
256,1768267303,296,10,8008,98,77,-28,126.29,0.05,-2.17,1
257,1768267303,306,-2,7948,105,86,-27,126.29,0.06,-2.19,1
258,1768267303,280,-28,8058,98,82,-30,126.29,0.03,-2.17,1
259,1768267303,238,0,8006,102,84,-19,126.29,0.05,-2.1,1
260,1768267303,294,-28,7978,102,84,-25,126.29,0.03,-2.12,1
261,1768267303,296,-14,8016,104,78,-28,126.29,0.02,-2.14,1
262,1768267303,274,12,8012,103,89,-24,126.29,0.06,-2.12,1
263,1768267303,268,-28,8016,97,77,-26,126.29,0.03,-2.1,1
264,1768267303,264,-6,8012,107,80,-29,126.29,0.04,-2.07,1
265,1768267303,244,-46,7988,101,88,-25,126.29,0.0,-2.03,1
266,1768267303,310,-10,7968,97,81,-24,126.29,0.0,-2.09,1
267,1768267303,254,4,8008,106,87,-29,126.29,0.03,-2.05,1
268,1768267303,308,-40,7984,97,79,-25,126.29,0.0,-2.1,1
269,1768267303,284,-6,8000,106,82,-29,126.29,0.01,-2.11,1
270,1768267303,248,-12,7986,104,82,-28,126.29,0.01,-2.06,1
271,1768267304,298,-22,8046,106,76,-31,126.29,0.0,-2.09,1
272,1768267304,266,24,7960,104,82,-25,126.29,0.06,-2.07,1
273,1768267304,288,16,7946,99,75,-25,126.29,0.1,-2.09,1
274,1768267304,300,-44,7958,102,82,-30,126.29,0.04,-2.12,1
275,1768267304,270,26,8002,105,82,-29,126.29,0.09,-2.11,1
276,1768267304,296,-2,8004,99,82,-30,126.29,0.09,-2.13,1
277,1768267304,248,10,7980,102,78,-27,126.29,0.11,-2.08,1
278,1768267304,244,-20,8000,99,83,-28,134.83,0.09,-2.03,1
279,1768267304,304,-48,7960,97,83,-27,134.83,0.02,-2.08,1
280,1768267304,242,4,8030,105,82,-30,134.83,0.05,-2.03,1
281,1768267304,294,18,8058,95,76,-25,134.83,0.09,-2.06,1
282,1768267304,312,-10,8000,100,79,-25,134.83,0.08,-2.11,1
283,1768267304,276,0,8006,103,81,-24,134.83,0.09,-2.1,1
284,1768267304,282,-4,7984,99,76,-21,134.83,0.09,-2.1,1
285,1768267304,290,14,7986,97,87,-25,134.83,0.11,-2.12,1
286,1768267304,296,-24,8042,96,81,-28,134.83,0.08,-2.14,1
287,1768267304,256,-12,8002,99,79,-22,134.83,0.07,-2.09,1
288,1768267304,274,22,8028,99,78,-25,134.83,0.11,-2.08,1
289,1768267304,286,-14,8004,104,81,-25,134.83,0.09,-2.1,1
290,1768267304,288,-8,7996,100,79,-25,134.83,0.09,-2.11,1
291,1768267304,274,26,8026,101,77,-25,134.83,0.13,-2.09,1
292,1768267304,278,14,7988,99,77,-30,134.83,0.15,-2.09,1
293,1768267304,284,-20,8040,99,76,-25,134.83,0.11,-2.1,1
294,1768267304,268,14,8006,103,83,-27,134.83,0.13,-2.08,1
295,1768267304,302,-4,7934,102,79,-28,134.83,0.13,-2.12,1
296,1768267304,310,-30,7984,103,84,-23,134.83,0.08,-2.16,1
297,1768267304,316,0,7962,104,86,-27,134.83,0.09,-2.2,1
298,1768267304,272,-56,8004,96,76,-29,134.83,0.01,-2.17,1
299,1768267304,300,16,8010,105,79,-27,134.83,0.06,-2.18,1
300,1768267304,226,-34,7940,104,83,-30,134.83,0.02,-2.09,1
301,1768267304,316,-28,7982,96,77,-29,134.83,0.0,-2.14,1
302,1768267304,276,16,7990,102,82,-28,134.83,0.05,-2.13,1
303,1768267304,276,12,8054,104,85,-28,141.47,0.08,-2.12,1
304,1768267304,318,-32,8026,100,78,-28,141.47,0.04,-2.16,1
305,1768267304,264,38,8070,109,81,-27,141.47,0.11,-2.13,1
306,1768267304,302,-44,8006,100,83,-26,141.47,0.05,-2.15,1
307,1768267304,258,-34,8076,95,81,-32,141.47,0.01,-2.11,1
308,1768267304,266,-10,7998,105,82,-27,141.47,0.02,-2.08,1
309,1768267304,288,-38,7958,95,79,-25,141.47,-0.01,-2.1,1
310,1768267304,284,8,8006,98,81,-22,141.47,0.02,-2.11,1
311,1768267304,290,-4,7984,105,84,-23,141.47,0.04,-2.12,1
312,1768267304,264,-56,7974,98,75,-27,141.47,-0.02,-2.09,1
313,1768267304,290,12,7990,105,77,-27,141.47,0.02,-2.11,1
314,1768267304,244,4,8036,107,84,-29,141.47,0.05,-2.05,1
315,1768267304,290,-50,8012,100,73,-24,141.47,0.0,-2.07,1
316,1768267304,274,-8,7992,108,80,-24,141.47,0.01,-2.07,1
317,1768267304,282,-18,7992,99,86,-25,141.47,0.0,-2.08,1
318,1768267304,300,-46,7992,100,79,-26,141.47,-0.03,-2.11,1
319,1768267304,294,16,8050,100,82,-23,141.47,0.01,-2.13,1
320,1768267304,282,-38,7960,98,82,-24,141.47,-0.01,-2.13,1
321,1768267305,272,-12,8020,102,78,-24,141.47,0.0,-2.11,1
322,1768267305,244,2,7976,107,83,-29,141.47,0.02,-2.06,1
323,1768267305,310,-44,7946,96,84,-27,141.47,-0.02,-2.11,1
324,1768267305,288,-4,7978,102,81,-28,141.47,0.0,-2.12,1
325,1768267305,258,-10,8042,98,89,-26,141.47,0.01,-2.09,1
326,1768267305,312,-30,8000,96,81,-23,141.47,0.0,-2.13,1
327,1768267305,282,30,8036,105,78,-24,141.47,0.06,-2.13,1
328,1768267305,288,-28,7956,104,80,-23,143.82,0.03,-2.13,1
329,1768267305,286,-44,7970,95,78,-20,143.82,-0.01,-2.14,1
330,1768267305,270,-14,8024,102,86,-22,143.82,0.0,-2.11,1
331,1768267305,244,10,7984,102,79,-27,143.82,0.03,-2.06,1
332,1768267305,294,-36,7948,95,78,-25,143.82,0.0,-2.09,1
333,1768267305,246,8,8072,100,79,-26,143.82,0.03,-2.04,1
334,1768267305,248,22,7996,99,84,-26,143.82,0.08,-2.01,1
335,1768267305,316,-60,8014,105,78,-27,143.82,0.0,-2.07,1
336,1768267305,242,2,7978,97,83,-29,143.82,0.03,-2.03,1
337,1768267305,282,-10,7952,103,82,-23,143.82,0.03,-2.05,1
338,1768267305,274,2,7994,94,81,-24,143.82,0.05,-2.05,1
339,1768267305,298,-32,7986,105,83,-27,143.82,0.02,-2.09,1
340,1768267305,286,16,7950,104,84,-28,143.82,0.06,-2.1,1
341,1768267305,296,-6,7986,97,81,-24,143.82,0.06,-2.12,1
342,1768267305,268,0,8040,102,84,-25,143.82,0.08,-2.1,1
343,1768267305,290,-8,7996,105,83,-27,143.82,0.07,-2.11,1
344,1768267305,326,-22,7926,100,80,-27,143.82,0.05,-2.18,1
345,1768267305,238,-32,8034,101,82,-26,143.82,0.02,-2.1,1
346,1768267305,268,16,7976,103,88,-26,143.82,0.06,-2.09,1
347,1768267305,294,38,7998,99,83,-31,143.82,0.13,-2.11,1
348,1768267305,256,-4,8024,102,78,-26,143.82,0.12,-2.07,1
349,1768267305,252,24,7966,102,79,-30,143.82,0.15,-2.04,1
350,1768267305,260,-18,7966,95,81,-27,143.82,0.12,-2.02,1
351,1768267305,278,-40,8024,96,74,-24,143.82,0.06,-2.03,1
352,1768267305,274,18,7948,101,84,-26,143.82,0.1,-2.04,1
353,1768267305,246,-16,7998,101,80,-23,130.49,0.08,-2.0,1
354,1768267305,298,2,7990,101,80,-27,130.49,0.09,-2.05,1
355,1768267305,236,2,8028,106,84,-20,130.49,0.1,-2.0,1
356,1768267305,266,-10,7992,98,82,-21,130.49,0.09,-2.0,1
357,1768267305,254,-30,8024,97,78,-27,130.49,0.05,-1.98,1
358,1768267305,278,36,8040,107,83,-29,130.49,0.12,-2.0,1
359,1768267305,264,-2,7994,102,87,-23,130.49,0.11,-2.0,1
360,1768267305,290,-34,8000,103,79,-22,130.49,0.07,-2.03,1
361,1768267305,298,-2,8008,106,82,-25,130.49,0.08,-2.07,1
362,1768267305,304,6,7950,99,87,-32,130.49,0.09,-2.11,1
363,1768267305,284,-32,8038,94,82,-31,130.49,0.05,-2.12,1
364,1768267305,302,44,8022,106,80,-25,130.49,0.13,-2.14,1
365,1768267305,276,6,7950,101,82,-27,130.49,0.13,-2.13,1
366,1768267305,260,-34,7986,96,79,-29,130.49,0.08,-2.1,1
367,1768267305,284,16,8006,102,83,-31,130.49,0.11,-2.1,1
368,1768267305,302,12,7944,103,81,-23,130.49,0.13,-2.14,1
369,1768267305,270,-16,7984,96,81,-23,130.49,0.1,-2.11,1
370,1768267305,264,14,8034,101,84,-21,130.49,0.13,-2.09,1
371,1768267306,276,18,7976,103,85,-24,130.49,0.15,-2.09,1
372,1768267306,312,-52,7948,98,82,-24,130.49,0.07,-2.14,1
373,1768267306,278,24,8008,99,80,-26,130.49,0.11,-2.13,1
374,1768267306,294,20,7980,100,82,-22,130.49,0.14,-2.14,1
375,1768267306,286,-8,8022,96,79,-27,130.49,0.13,-2.14,1
376,1768267306,302,-12,8048,101,78,-28,130.49,0.11,-2.16,1
377,1768267306,312,36,7946,106,79,-26,130.49,0.16,-2.2,1
378,1768267306,288,-42,7970,99,79,-25,136.33,0.09,-2.19,1
379,1768267306,318,-12,8030,106,85,-24,136.33,0.08,-2.22,1
380,1768267306,246,-4,8014,103,81,-25,136.33,0.08,-2.15,1
381,1768267306,250,-12,8014,103,82,-26,136.33,0.07,-2.1,1
382,1768267306,308,-46,7964,103,82,-21,136.33,0.02,-2.14,1
383,1768267306,284,-30,8038,101,81,-25,136.33,0.0,-2.13,1
384,1768267306,296,10,7970,96,80,-26,136.33,0.03,-2.15,1
385,1768267306,304,-8,7956,102,81,-26,136.33,0.04,-2.18,1
386,1768267306,288,-6,8012,98,82,-24,136.33,0.05,-2.17,1
387,1768267306,250,-10,8058,103,79,-23,136.33,0.05,-2.11,1
388,1768267306,288,-48,7974,99,84,-22,136.33,0.0,-2.12,1
389,1768267306,294,-6,7968,91,79,-26,136.33,0.01,-2.14,1
390,1768267306,252,6,8042,101,80,-26,136.33,0.04,-2.09,1
391,1768267306,224,4,8004,107,86,-26,136.33,0.06,-2.01,1
392,1768267306,276,-26,8022,95,79,-26,136.33,0.03,-2.02,1
393,1768267306,238,-8,8060,103,81,-25,136.33,0.04,-1.97,1
394,1768267306,248,26,7958,106,84,-28,136.33,0.09,-1.96,1
395,1768267306,272,-54,8018,97,78,-24,136.33,0.02,-1.97,1
396,1768267306,298,-10,7990,101,73,-30,136.33,0.03,-2.02,1
397,1768267306,278,24,7988,105,81,-25,136.33,0.08,-2.03,1
398,1768267306,270,-40,7954,97,81,-20,136.33,0.03,-2.04,1
399,1768267306,264,-56,8000,101,80,-26,136.33,-0.02,-2.02,1
400,1768267306,270,36,8024,107,82,-27,136.33,0.05,-2.02,1
401,1768267306,286,4,7938,101,84,-23,136.33,0.07,-2.05,1
402,1768267306,316,-62,8010,95,79,-22,136.33,0.0,-2.11,1
403,1768267306,286,-28,8026,99,79,-24,141.88,-0.02,-2.12,1
404,1768267306,282,6,7986,109,85,-24,141.88,0.01,-2.12,1
405,1768267306,222,-42,7992,92,82,-25,141.88,-0.02,-2.03,1
406,1768267306,274,-48,7992,100,82,-30,141.88,-0.06,-2.04,1
407,1768267306,276,-2,7998,103,86,-26,141.88,-0.02,-2.04,1
408,1768267306,278,-30,7948,102,82,-22,141.88,-0.04,-2.06,1
409,1768267306,288,-34,7992,100,85,-24,141.88,-0.05,-2.08,1
410,1768267306,254,32,8010,104,82,-24,141.88,0.02,-2.04,1
411,1768267306,252,8,8010,100,83,-27,141.88,0.05,-2.01,1
412,1768267306,298,-40,7932,96,81,-27,141.88,0.01,-2.06,1
413,1768267306,282,-10,8020,96,82,-28,141.88,0.01,-2.07,1
414,1768267306,268,44,8024,104,82,-24,141.88,0.1,-2.06,1
415,1768267306,250,-26,7976,95,82,-28,141.88,0.06,-2.02,1
416,1768267306,248,-12,7974,95,82,-27,141.88,0.06,-1.99,1
417,1768267306,264,-2,7976,104,78,-27,141.88,0.07,-1.99,1
418,1768267306,278,-8,8052,97,79,-23,141.88,0.06,-2.01,1
419,1768267306,282,-20,7996,96,84,-30,141.88,0.04,-2.03,1
420,1768267306,272,6,8034,99,83,-26,141.88,0.07,-2.03,1
421,1768267307,296,26,7980,102,83,-25,141.88,0.12,-2.07,1
422,1768267307,226,18,7962,105,80,-28,141.88,0.14,-2.0,1
423,1768267307,272,-18,7980,96,83,-28,141.88,0.11,-2.01,1
424,1768267307,270,-12,8028,103,83,-26,141.88,0.1,-2.01,1
425,1768267307,248,-26,8000,104,84,-23,141.88,0.06,-1.98,1
426,1768267307,266,2,7974,102,82,-24,141.88,0.08,-1.99,1
427,1768267307,288,-16,7972,99,82,-24,141.88,0.06,-2.02,1
428,1768267307,296,-2,8008,104,82,-23,132.95,0.07,-2.06,1
429,1768267307,208,-18,7976,100,76,-26,132.95,0.05,-1.97,1
430,1768267307,256,-30,7950,95,79,-26,132.95,0.02,-1.96,1
431,1768267307,274,-34,7988,99,83,-22,132.95,0.0,-1.98,1
432,1768267307,274,-20,8008,103,80,-29,132.95,0.0,-1.99,1
433,1768267307,258,26,7932,109,83,-29,132.95,0.05,-1.99,1
434,1768267307,264,-52,7968,102,80,-24,132.95,0.0,-1.99,1
435,1768267307,296,-20,7998,99,80,-22,132.95,0.0,-2.03,1
436,1768267307,268,-8,8036,105,81,-28,132.95,0.0,-2.03,1
437,1768267307,262,0,7988,103,82,-29,132.95,0.03,-2.02,1
438,1768267307,300,-12,7988,99,80,-23,132.95,0.03,-2.06,1
439,1768267307,300,-14,7996,100,78,-28,132.95,0.03,-2.1,1
440,1768267307,308,22,7982,104,83,-30,132.95,0.08,-2.14,1
441,1768267307,258,4,7986,102,86,-29,132.95,0.09,-2.1,1
442,1768267307,320,-40,7972,99,78,-27,132.95,0.04,-2.16,1
443,1768267307,260,-2,7994,104,80,-27,132.95,0.05,-2.12,1
444,1768267307,272,4,7940,103,84,-25,132.95,0.07,-2.11,1
445,1768267307,300,-46,7962,94,82,-26,132.95,0.01,-2.14,1
446,1768267307,334,-16,7968,98,75,-28,132.95,0.01,-2.21,1
447,1768267307,262,34,8040,105,80,-28,132.95,0.08,-2.16,1
448,1768267307,268,-12,7980,105,80,-29,132.95,0.07,-2.13,1
449,1768267307,284,6,7924,98,82,-27,132.95,0.09,-2.13,1
450,1768267307,276,-10,7988,100,78,-28,132.95,0.08,-2.12,1
451,1768267307,262,-2,8038,100,79,-21,132.95,0.09,-2.09,1
452,1768267307,252,-8,7998,98,82,-28,132.95,0.08,-2.05,1
453,1768267307,302,-46,7972,98,79,-23,123.48,0.02,-2.09,1
454,1768267307,268,0,8042,98,80,-25,123.48,0.04,-2.07,1
455,1768267307,274,14,7998,102,78,-23,123.48,0.08,-2.07,1
456,1768267307,266,-20,7934,106,80,-27,123.48,0.06,-2.06,1
457,1768267307,284,-10,7948,99,78,-29,123.48,0.05,-2.07,1
458,1768267307,294,10,7964,102,78,-28,123.48,0.08,-2.1,1
459,1768267307,256,2,8012,101,78,-24,123.48,0.09,-2.06,1
460,1768267307,288,12,7988,99,82,-27,123.48,0.11,-2.08,1
461,1768267307,262,4,7970,100,82,-28,123.48,0.12,-2.06,1
462,1768267307,264,-36,8056,101,80,-25,123.48,0.07,-2.04,1
463,1768267307,256,-16,7990,100,78,-27,123.48,0.06,-2.02,1
464,1768267307,286,14,8060,103,81,-28,123.48,0.09,-2.04,1
465,1768267307,274,-22,7954,102,77,-25,123.48,0.06,-2.05,1
466,1768267307,278,-22,7996,94,81,-31,123.48,0.04,-2.05,1
467,1768267307,280,2,8010,102,78,-26,123.48,0.06,-2.06,1
468,1768267307,286,-4,7974,104,83,-27,123.48,0.07,-2.08,1
469,1768267307,260,6,7922,101,83,-23,123.48,0.09,-2.06,1
470,1768267307,294,-22,8014,99,80,-32,123.48,0.06,-2.09,1
471,1768267308,294,-2,8030,104,86,-26,123.48,0.07,-2.11,1
472,1768267308,272,14,7998,103,87,-29,123.48,0.1,-2.1,1
473,1768267308,292,-42,7952,95,82,-25,123.48,0.04,-2.12,1
474,1768267308,260,-36,8002,99,81,-29,123.48,0.0,-2.08,1
475,1768267308,314,-8,8044,102,76,-25,123.48,0.02,-2.13,1
476,1768267308,256,24,7966,106,85,-33,123.48,0.07,-2.09,1
477,1768267308,298,-26,7938,95,77,-25,123.48,0.04,-2.12,1
478,1768267308,298,-26,8000,101,80,-25,131.12,0.02,-2.14,1
479,1768267308,274,0,8090,105,78,-27,131.12,0.04,-2.12,1
480,1768267308,250,14,7998,102,82,-26,131.12,0.08,-2.07,1
481,1768267308,314,-12,7982,100,84,-24,131.12,0.07,-2.13,1
482,1768267308,274,-22,7986,98,81,-27,131.12,0.05,-2.11,1
483,1768267308,238,-20,8016,103,85,-24,131.12,0.03,-2.05,1
484,1768267308,282,36,7960,102,80,-31,131.12,0.1,-2.07,1
485,1768267308,264,-16,7968,98,83,-28,131.12,0.08,-2.05,1
486,1768267308,266,-50,8036,97,79,-26,131.12,0.02,-2.04,1
487,1768267308,318,-4,8062,100,83,-26,131.12,0.03,-2.1,1
488,1768267308,260,-36,7994,102,84,-22,131.12,0.0,-2.07,1
489,1768267308,304,-36,7956,90,82,-29,131.12,-0.02,-2.12,1
490,1768267308,314,-36,7924,95,77,-23,131.12,-0.05,-2.16,1
491,1768267308,272,-2,8016,99,81,-29,131.12,-0.01,-2.14,1
492,1768267308,292,30,7990,99,80,-25,131.12,0.05,-2.15,1
493,1768267308,266,4,7982,98,80,-28,131.12,0.07,-2.12,1
494,1768267308,278,-12,8000,98,78,-28,131.12,0.06,-2.11,1
495,1768267308,300,22,8022,99,83,-26,131.12,0.1,-2.14,1
496,1768267308,292,-18,7990,102,79,-29,131.12,0.08,-2.15,1
497,1768267308,268,0,7990,98,89,-27,131.12,0.09,-2.12,1
498,1768267308,284,-22,7962,99,79,-25,131.12,0.06,-2.12,1
499,1768267308,288,-14,8010,102,81,-25,131.12,0.05,-2.13,1
500,1768267308,238,-4,8022,100,87,-28,131.12,0.06,-2.06,1
